session,task,run,subj,name,trial.type,iti,cue,probe,target.color,location,cue.cresp,target.cresp,cue.rt,cue.acc,cue.resp,target.rt,target.acc,target.resp,trialacc,time.cue.onset.abs,time.target.onset.abs,time.target.rt.abs,time.cue.rt.abs,time.scan.start,trial.num,acc,time.cue.onset,time.cue.rt,time.target.onset,time.target.rt,time.block1.on,time.block2.on,time.block3.on,time.block1.off,time.block2.off,time.block3.off
bas,axc,1,102008,bas_axc_run1_102008,AY,1600,A,H,white,center,1,1,378,1,1,637,1,1,1,75524,80323,80960,75902,44909,1,1,30.615,30.993,35.414,36.051,28.415,260.028,491.625,231.633,463.229,694.826
bas,axc,1,102008,bas_axc_run1_102008,AX,2800,A,X,white,center,1,2,515,1,1,363,1,2,1,82723,87522,87885,83238,44909,2,1,37.814,38.329,42.613,42.976,28.415,260.028,491.625,231.633,463.229,694.826
bas,axc,1,102008,bas_axc_run1_102008,AY,4000,A,D,white,center,1,1,383,1,1,876,1,1,1,91138,95937,96813,91521,44909,3,1,46.229,46.612,51.028,51.904,28.415,260.028,491.625,231.633,463.229,694.826
bas,axc,1,102008,bas_axc_run1_102008,AX,2800,A,X,white,center,1,2,414,1,1,428,1,2,1,100736,105536,105964,101150,44909,4,1,55.827,56.241,60.627,61.055,28.415,260.028,491.625,231.633,463.229,694.826
bas,axc,1,102008,bas_axc_run1_102008,BY,4000,U,D,white,center,1,1,573,1,1,445,1,1,1,109135,113934,114379,109708,44909,5,1,64.226,64.799,69.025,69.47,28.415,260.028,491.625,231.633,463.229,694.826
bas,axc,1,102008,bas_axc_run1_102008,BY,4000,C,D,white,center,1,1,619,1,1,432,1,1,1,118734,123533,123965,119353,44909,6,1,73.825,74.444,78.624,79.056,28.415,260.028,491.625,231.633,463.229,694.826
bas,axc,1,102008,bas_axc_run1_102008,BY,2800,H,U,white,center,1,1,321,1,1,551,1,1,1,128332,133131,133682,128653,44909,7,1,83.423,83.744,88.222,88.773,28.415,260.028,491.625,231.633,463.229,694.826
bas,axc,1,102008,bas_axc_run1_102008,BY,1600,U,P,white,center,1,1,379,1,1,689,1,1,1,136731,141530,142219,137110,44909,8,1,91.822,92.201,96.621,97.31,28.415,260.028,491.625,231.633,463.229,694.826
bas,axc,1,102008,bas_axc_run1_102008,Ang,1600,A,5,white,center,1,,471,1,1,0,1,,1,143930,148729,0,144401,44909,9,1,99.021,99.492,103.82,-44.909,28.415,260.028,491.625,231.633,463.229,694.826
bas,axc,1,102008,bas_axc_run1_102008,AX,2800,A,X,white,center,1,2,548,1,1,363,1,2,1,151128,155928,156291,151676,44909,10,1,106.219,106.767,111.019,111.382,28.415,260.028,491.625,231.633,463.229,694.826
bas,axc,1,102008,bas_axc_run1_102008,AX,4000,A,X,white,center,1,2,348,1,1,341,1,2,1,159527,164326,164667,159875,44909,11,1,114.618,114.966,119.417,119.758,28.415,260.028,491.625,231.633,463.229,694.826
bas,axc,1,102008,bas_axc_run1_102008,BY,1600,P,M,white,center,1,1,517,1,1,455,0,2,0,169126,173925,174380,169643,44909,12,0,124.217,124.734,129.016,129.471,28.415,260.028,491.625,231.633,463.229,694.826
bas,axc,1,102008,bas_axc_run1_102008,BY,4000,H,T,white,center,1,1,516,1,1,362,1,1,1,176324,181124,181486,176840,44909,13,1,131.415,131.931,136.215,136.577,28.415,260.028,491.625,231.633,463.229,694.826
bas,axc,1,102008,bas_axc_run1_102008,AX,1600,A,X,white,center,1,2,412,1,1,461,1,2,1,185923,190722,191183,186335,44909,14,1,141.014,141.426,145.813,146.274,28.415,260.028,491.625,231.633,463.229,694.826
bas,axc,1,102008,bas_axc_run1_102008,Ang,1600,A,9,white,center,1,,441,1,1,0,1,,1,193122,197938,0,193563,44909,15,1,148.213,148.654,153.029,-44.909,28.415,260.028,491.625,231.633,463.229,694.826
bas,axc,1,102008,bas_axc_run1_102008,BX,2800,P,X,white,center,1,1,570,1,1,923,1,1,1,200337,205137,206060,200907,44909,16,1,155.428,155.998,160.228,161.151,28.415,260.028,491.625,231.633,463.229,694.826
bas,axc,1,102008,bas_axc_run1_102008,BX,4000,U,X,white,center,1,1,823,1,1,816,1,1,1,208736,213535,214351,209559,44909,17,1,163.827,164.65,168.626,169.442,28.415,260.028,491.625,231.633,463.229,694.826
bas,axc,1,102008,bas_axc_run1_102008,AX,2800,A,X,white,center,1,2,634,1,1,439,1,2,1,218334,223134,223573,218968,44909,18,1,173.425,174.059,178.225,178.664,28.415,260.028,491.625,231.633,463.229,694.826
bas,axc,1,102008,bas_axc_run1_102008,BY,2800,N,P,white,center,1,1,680,1,1,509,1,1,1,226733,231532,232041,227413,44909,19,1,181.824,182.504,186.623,187.132,28.415,260.028,491.625,231.633,463.229,694.826
bas,axc,1,102008,bas_axc_run1_102008,BY,2800,N,U,white,center,1,1,469,1,1,409,1,1,1,235132,239931,240340,235601,44909,20,1,190.223,190.692,195.022,195.431,28.415,260.028,491.625,231.633,463.229,694.826
bas,axc,1,102008,bas_axc_run1_102008,Bng,1600,D,4,white,center,1,,544,1,1,379,0,1,0,243530,248330,248709,244074,44909,21,0,198.621,199.165,203.421,203.8,28.415,260.028,491.625,231.633,463.229,694.826
bas,axc,1,102008,bas_axc_run1_102008,AX,4000,A,X,white,center,1,2,1188,1,1,410,1,2,1,250729,255529,255939,251917,44909,22,1,205.82,207.008,210.62,211.03,28.415,260.028,491.625,231.633,463.229,694.826
bas,axc,1,102008,bas_axc_run1_102008,Bng,1600,D,2,white,center,1,,481,1,1,0,1,,1,260328,265127,0,260809,44909,23,1,215.419,215.9,220.218,-44.909,28.415,260.028,491.625,231.633,463.229,694.826
bas,axc,1,102008,bas_axc_run1_102008,AX,4000,A,X,white,center,1,2,525,1,1,325,1,2,1,267527,272326,272651,268052,44909,24,1,222.618,223.143,227.417,227.742,28.415,260.028,491.625,231.633,463.229,694.826
bas,axc,1,102008,bas_axc_run1_102008,Bng,4000,T,6,white,center,1,,542,1,1,0,1,,1,307137,311936,0,307679,44909,25,1,262.228,262.77,267.027,-44.909,28.415,260.028,491.625,231.633,463.229,694.826
bas,axc,1,102008,bas_axc_run1_102008,BY,4000,M,F,white,center,1,1,444,1,1,690,0,2,0,316735,321535,322225,317179,44909,26,0,271.826,272.27,276.626,277.316,28.415,260.028,491.625,231.633,463.229,694.826
bas,axc,1,102008,bas_axc_run1_102008,AX,2800,A,X,white,center,1,2,529,1,1,414,1,2,1,326334,331133,331547,326863,44909,27,1,281.425,281.954,286.224,286.638,28.415,260.028,491.625,231.633,463.229,694.826
bas,axc,1,102008,bas_axc_run1_102008,Ang,1600,A,1,white,center,1,,437,1,1,0,1,,1,334733,339532,0,335170,44909,28,1,289.824,290.261,294.623,-44.909,28.415,260.028,491.625,231.633,463.229,694.826
bas,axc,1,102008,bas_axc_run1_102008,BY,1600,F,M,white,center,1,1,672,1,1,719,1,1,1,341931,346731,347450,342603,44909,29,1,297.022,297.694,301.822,302.541,28.415,260.028,491.625,231.633,463.229,694.826
bas,axc,1,102008,bas_axc_run1_102008,BY,2800,T,N,white,center,1,1,662,1,1,824,1,1,1,349130,353930,354754,349792,44909,30,1,304.221,304.883,309.021,309.845,28.415,260.028,491.625,231.633,463.229,694.826
bas,axc,1,102008,bas_axc_run1_102008,AX,2800,A,X,white,center,1,2,536,1,1,364,1,2,1,357529,362328,362692,358065,44909,31,1,312.62,313.156,317.419,317.783,28.415,260.028,491.625,231.633,463.229,694.826
bas,axc,1,102008,bas_axc_run1_102008,Ang,4000,A,3,white,center,1,,844,1,1,0,1,,1,365928,370727,0,366772,44909,32,1,321.019,321.863,325.818,-44.909,28.415,260.028,491.625,231.633,463.229,694.826
bas,axc,1,102008,bas_axc_run1_102008,AY,1600,A,N,white,center,1,1,518,1,1,760,1,1,1,375526,380325,381085,376044,44909,33,1,330.617,331.135,335.416,336.176,28.415,260.028,491.625,231.633,463.229,694.826
bas,axc,1,102008,bas_axc_run1_102008,BX,4000,M,X,white,center,1,1,553,1,1,1380,0,2,0,382725,387524,388904,383278,44909,34,0,337.816,338.369,342.615,343.995,28.415,260.028,491.625,231.633,463.229,694.826
bas,axc,1,102008,bas_axc_run1_102008,BY,1600,T,M,white,center,1,1,493,1,1,762,1,1,1,392324,397123,397885,392817,44909,35,1,347.415,347.908,352.214,352.976,28.415,260.028,491.625,231.633,463.229,694.826
bas,axc,1,102008,bas_axc_run1_102008,AX,2800,A,X,white,center,1,2,514,1,1,460,1,2,1,399522,404322,404782,400036,44909,36,1,354.613,355.127,359.413,359.873,28.415,260.028,491.625,231.633,463.229,694.826
bas,axc,1,102008,bas_axc_run1_102008,BY,4000,C,M,white,center,1,1,393,1,1,402,1,1,1,407938,412737,413139,408331,44909,37,1,363.029,363.422,367.828,368.23,28.415,260.028,491.625,231.633,463.229,694.826
bas,axc,1,102008,bas_axc_run1_102008,BY,4000,D,T,white,center,1,1,436,1,1,467,1,1,1,417536,422335,422802,417972,44909,38,1,372.627,373.063,377.426,377.893,28.415,260.028,491.625,231.633,463.229,694.826
bas,axc,1,102008,bas_axc_run1_102008,AX,1600,A,X,white,center,1,2,575,1,1,454,1,2,1,427135,431934,432388,427710,44909,39,1,382.226,382.801,387.025,387.479,28.415,260.028,491.625,231.633,463.229,694.826
bas,axc,1,102008,bas_axc_run1_102008,AX,4000,A,X,white,center,1,2,442,1,1,316,1,2,1,434334,439133,439449,434776,44909,40,1,389.425,389.867,394.224,394.54,28.415,260.028,491.625,231.633,463.229,694.826
bas,axc,1,102008,bas_axc_run1_102008,BY,1600,D,N,white,center,1,1,502,1,1,466,1,1,1,443932,448731,449197,444434,44909,41,1,399.023,399.525,403.822,404.288,28.415,260.028,491.625,231.633,463.229,694.826
bas,axc,1,102008,bas_axc_run1_102008,AX,1600,A,X,white,center,1,2,550,1,1,344,1,2,1,451131,455930,456274,451681,44909,42,1,406.222,406.772,411.021,411.365,28.415,260.028,491.625,231.633,463.229,694.826
bas,axc,1,102008,bas_axc_run1_102008,AX,4000,A,X,white,center,1,2,463,1,1,375,1,2,1,458330,463129,463504,458793,44909,43,1,413.421,413.884,418.22,418.595,28.415,260.028,491.625,231.633,463.229,694.826
bas,axc,1,102008,bas_axc_run1_102008,BY,2800,P,H,white,center,1,1,571,1,1,433,1,1,1,467928,472727,473160,468499,44909,44,1,423.019,423.59,427.818,428.251,28.415,260.028,491.625,231.633,463.229,694.826
bas,axc,1,102008,bas_axc_run1_102008,AX,2800,A,X,white,center,1,2,365,1,1,371,1,2,1,476327,481126,481497,476692,44909,45,1,431.418,431.783,436.217,436.588,28.415,260.028,491.625,231.633,463.229,694.826
bas,axc,1,102008,bas_axc_run1_102008,BX,2800,F,X,white,center,1,1,385,1,1,640,1,1,1,484726,489525,490165,485111,44909,46,1,439.817,440.202,444.616,445.256,28.415,260.028,491.625,231.633,463.229,694.826
bas,axc,1,102008,bas_axc_run1_102008,AY,1600,A,T,white,center,1,1,462,1,1,633,1,1,1,493124,497923,498556,493586,44909,47,1,448.215,448.677,453.014,453.647,28.415,260.028,491.625,231.633,463.229,694.826
bas,axc,1,102008,bas_axc_run1_102008,Bng,2800,N,5,white,center,1,,659,1,1,0,1,,1,500323,505122,0,500982,44909,48,1,455.414,456.073,460.213,-44.909,28.415,260.028,491.625,231.633,463.229,694.826
bas,axc,1,102008,bas_axc_run1_102008,Ang,1600,A,7,white,center,1,,384,1,1,0,1,,1,538734,543533,0,539118,44909,49,1,493.825,494.209,498.624,-44.909,28.415,260.028,491.625,231.633,463.229,694.826
bas,axc,1,102008,bas_axc_run1_102008,BY,4000,F,C,white,center,1,1,656,1,1,937,1,1,1,545932,550732,551669,546588,44909,50,1,501.023,501.679,505.823,506.76,28.415,260.028,491.625,231.633,463.229,694.826
bas,axc,1,102008,bas_axc_run1_102008,BY,4000,M,P,white,center,1,1,448,1,1,634,1,1,1,555531,560330,560964,555979,44909,51,1,510.622,511.07,515.421,516.055,28.415,260.028,491.625,231.633,463.229,694.826
bas,axc,1,102008,bas_axc_run1_102008,BY,4000,H,U,white,center,1,1,464,1,1,576,1,1,1,565129,569929,570505,565593,44909,52,1,520.22,520.684,525.02,525.596,28.415,260.028,491.625,231.633,463.229,694.826
bas,axc,1,102008,bas_axc_run1_102008,BY,1600,D,N,white,center,1,1,386,1,1,576,1,1,1,574728,579527,580103,575114,44909,53,1,529.819,530.205,534.618,535.194,28.415,260.028,491.625,231.633,463.229,694.826
bas,axc,1,102008,bas_axc_run1_102008,BY,2800,M,P,white,center,1,1,462,1,1,503,1,1,1,581927,586726,587229,582389,44909,54,1,537.018,537.48,541.817,542.32,28.415,260.028,491.625,231.633,463.229,694.826
bas,axc,1,102008,bas_axc_run1_102008,Bng,2800,M,9,white,center,1,,517,1,1,0,1,,1,590325,595125,0,590842,44909,55,1,545.416,545.933,550.216,-44.909,28.415,260.028,491.625,231.633,463.229,694.826
bas,axc,1,102008,bas_axc_run1_102008,BY,2800,T,N,white,center,1,1,380,1,1,529,1,1,1,598724,603523,604052,599104,44909,56,1,553.815,554.195,558.614,559.143,28.415,260.028,491.625,231.633,463.229,694.826
bas,axc,1,102008,bas_axc_run1_102008,AX,1600,A,X,white,center,1,2,507,1,1,462,1,2,1,607123,611922,612384,607630,44909,57,1,562.214,562.721,567.013,567.475,28.415,260.028,491.625,231.633,463.229,694.826
bas,axc,1,102008,bas_axc_run1_102008,AX,1600,A,X,white,center,1,2,375,1,1,388,1,2,1,614322,619138,619526,614697,44909,58,1,569.413,569.788,574.229,574.617,28.415,260.028,491.625,231.633,463.229,694.826
bas,axc,1,102008,bas_axc_run1_102008,AX,4000,A,X,white,center,1,2,329,1,1,459,1,2,1,621537,626336,626795,621866,44909,59,1,576.628,576.957,581.427,581.886,28.415,260.028,491.625,231.633,463.229,694.826
bas,axc,1,102008,bas_axc_run1_102008,AX,2800,A,X,white,center,1,2,350,1,1,474,1,2,1,631136,635935,636409,631486,44909,60,1,586.227,586.577,591.026,591.5,28.415,260.028,491.625,231.633,463.229,694.826
bas,axc,1,102008,bas_axc_run1_102008,AY,1600,A,H,white,center,1,1,435,1,1,654,0,2,0,639534,644334,644988,639969,44909,61,0,594.625,595.06,599.425,600.079,28.415,260.028,491.625,231.633,463.229,694.826
bas,axc,1,102008,bas_axc_run1_102008,BX,4000,C,X,white,center,1,1,542,1,1,743,1,1,1,646733,651532,652275,647275,44909,62,1,601.824,602.366,606.623,607.366,28.415,260.028,491.625,231.633,463.229,694.826
bas,axc,1,102008,bas_axc_run1_102008,Ang,2800,A,3,white,center,1,,397,1,1,0,1,,1,656332,661131,0,656729,44909,63,1,611.423,611.82,616.222,-44.909,28.415,260.028,491.625,231.633,463.229,694.826
bas,axc,1,102008,bas_axc_run1_102008,BY,1600,P,H,white,center,1,1,447,1,1,617,1,1,1,664730,669530,670147,665177,44909,64,1,619.821,620.268,624.621,625.238,28.415,260.028,491.625,231.633,463.229,694.826
bas,axc,1,102008,bas_axc_run1_102008,BX,4000,P,X,white,center,1,1,685,1,1,595,1,1,1,671929,676728,677323,672614,44909,65,1,627.02,627.705,631.819,632.414,28.415,260.028,491.625,231.633,463.229,694.826
bas,axc,1,102008,bas_axc_run1_102008,AX,4000,A,X,white,center,1,2,383,1,1,380,1,2,1,681528,686327,686707,681911,44909,66,1,636.619,637.002,641.418,641.798,28.415,260.028,491.625,231.633,463.229,694.826
bas,axc,1,102008,bas_axc_run1_102008,Bng,1600,U,5,white,center,1,,566,1,1,0,1,,1,691126,695925,0,691692,44909,67,1,646.217,646.783,651.016,-44.909,28.415,260.028,491.625,231.633,463.229,694.826
bas,axc,1,102008,bas_axc_run1_102008,AX,1600,A,X,white,center,1,2,533,1,1,454,1,2,1,698325,703124,703578,698858,44909,68,1,653.416,653.949,658.215,658.669,28.415,260.028,491.625,231.633,463.229,694.826
bas,axc,1,102008,bas_axc_run1_102008,AY,2800,A,T,white,center,1,1,409,1,1,724,1,1,1,705524,710323,711047,705933,44909,69,1,660.615,661.024,665.414,666.138,28.415,260.028,491.625,231.633,463.229,694.826
bas,axc,1,102008,bas_axc_run1_102008,AX,2800,A,X,white,center,1,2,427,1,1,467,1,2,1,713923,718722,719189,714350,44909,70,1,669.014,669.441,673.813,674.28,28.415,260.028,491.625,231.633,463.229,694.826
bas,axc,1,102008,bas_axc_run1_102008,BY,4000,P,M,white,center,1,1,585,1,1,712,1,1,1,722338,727137,727849,722923,44909,71,1,677.429,678.014,682.228,682.94,28.415,260.028,491.625,231.633,463.229,694.826
bas,axc,1,102008,bas_axc_run1_102008,AX,2800,A,X,white,center,1,2,951,1,1,516,1,2,1,731936,736736,737252,732887,44909,72,1,687.027,687.978,691.827,692.343,28.415,260.028,491.625,231.633,463.229,694.826
bas,axc,2,102008,bas_axc_run2_102008,Ang,4000,A,6,white,center,1,,393,1,1,0,1,,1,68428,73228,0,68821,37810,1,1,30.618,31.011,35.418,-37.81,28.419,260.015,491.612,231.62,463.233,694.83
bas,axc,2,102008,bas_axc_run2_102008,AY,4000,A,F,white,center,1,1,349,1,1,643,1,1,1,78027,82826,83469,78376,37810,2,1,40.217,40.566,45.016,45.659,28.419,260.015,491.612,231.62,463.233,694.83
bas,axc,2,102008,bas_axc_run2_102008,AX,2800,A,X,white,center,1,2,361,1,1,353,1,2,1,87625,92425,92778,87986,37810,3,1,49.815,50.176,54.615,54.968,28.419,260.015,491.612,231.62,463.233,694.83
bas,axc,2,102008,bas_axc_run2_102008,AX,1600,A,X,white,center,1,2,337,1,1,372,1,2,1,96024,100823,101195,96361,37810,4,1,58.214,58.551,63.013,63.385,28.419,260.015,491.612,231.62,463.233,694.83
bas,axc,2,102008,bas_axc_run2_102008,Bng,4000,M,1,white,center,1,,766,1,1,0,1,,1,103223,108022,0,103989,37810,5,1,65.413,66.179,70.212,-37.81,28.419,260.015,491.612,231.62,463.233,694.83
bas,axc,2,102008,bas_axc_run2_102008,AX,2800,A,X,white,center,1,2,445,1,1,354,1,2,1,112821,117621,117975,113266,37810,6,1,75.011,75.456,79.811,80.165,28.419,260.015,491.612,231.62,463.233,694.83
bas,axc,2,102008,bas_axc_run2_102008,Ang,2800,A,8,white,center,1,,370,1,1,0,1,,1,121220,126019,0,121590,37810,7,1,83.41,83.78,88.209,-37.81,28.419,260.015,491.612,231.62,463.233,694.83
bas,axc,2,102008,bas_axc_run2_102008,Bng,2800,H,1,white,center,1,,639,1,1,0,1,,1,129619,134435,0,130258,37810,8,1,91.809,92.448,96.625,-37.81,28.419,260.015,491.612,231.62,463.233,694.83
bas,axc,2,102008,bas_axc_run2_102008,AX,1600,A,X,white,center,1,2,431,1,1,356,1,2,1,138034,142833,143189,138465,37810,9,1,100.224,100.655,105.023,105.379,28.419,260.015,491.612,231.62,463.233,694.83
bas,axc,2,102008,bas_axc_run2_102008,BY,4000,M,U,white,center,1,1,530,1,1,456,1,1,1,145233,150032,150488,145763,37810,10,1,107.423,107.953,112.222,112.678,28.419,260.015,491.612,231.62,463.233,694.83
bas,axc,2,102008,bas_axc_run2_102008,BX,1600,D,X,white,center,1,1,638,1,1,391,1,1,1,154831,159631,160022,155469,37810,11,1,117.021,117.659,121.821,122.212,28.419,260.015,491.612,231.62,463.233,694.83
bas,axc,2,102008,bas_axc_run2_102008,AY,1600,A,P,white,center,1,1,451,1,1,792,1,1,1,162030,166829,167621,162481,37810,12,1,124.22,124.671,129.019,129.811,28.419,260.015,491.612,231.62,463.233,694.83
bas,axc,2,102008,bas_axc_run2_102008,AX,2800,A,X,white,center,1,2,316,1,1,297,1,2,1,169229,174028,174325,169545,37810,13,1,131.419,131.735,136.218,136.515,28.419,260.015,491.612,231.62,463.233,694.83
bas,axc,2,102008,bas_axc_run2_102008,BY,4000,T,P,white,center,1,1,612,1,1,425,1,1,1,177628,182427,182852,178240,37810,14,1,139.818,140.43,144.617,145.042,28.419,260.015,491.612,231.62,463.233,694.83
bas,axc,2,102008,bas_axc_run2_102008,BY,2800,D,C,white,center,1,1,374,1,1,447,1,1,1,187226,192025,192472,187600,37810,15,1,149.416,149.79,154.215,154.662,28.419,260.015,491.612,231.62,463.233,694.83
bas,axc,2,102008,bas_axc_run2_102008,BY,4000,H,C,white,center,1,1,374,1,1,402,1,1,1,195625,200424,200826,195999,37810,16,1,157.815,158.189,162.614,163.016,28.419,260.015,491.612,231.62,463.233,694.83
bas,axc,2,102008,bas_axc_run2_102008,BY,4000,D,U,white,center,1,1,344,1,1,361,1,1,1,205223,210023,210384,205567,37810,17,1,167.413,167.757,172.213,172.574,28.419,260.015,491.612,231.62,463.233,694.83
bas,axc,2,102008,bas_axc_run2_102008,BX,1600,T,X,white,center,1,1,411,1,1,334,1,1,1,214822,219621,219955,215233,37810,18,1,177.012,177.423,181.811,182.145,28.419,260.015,491.612,231.62,463.233,694.83
bas,axc,2,102008,bas_axc_run2_102008,AX,1600,A,X,white,center,1,2,408,1,1,401,1,2,1,222021,226820,227221,222429,37810,19,1,184.211,184.619,189.01,189.411,28.419,260.015,491.612,231.62,463.233,694.83
bas,axc,2,102008,bas_axc_run2_102008,BY,2800,P,C,white,center,1,1,470,1,1,392,1,1,1,229220,234019,234411,229690,37810,20,1,191.41,191.88,196.209,196.601,28.419,260.015,491.612,231.62,463.233,694.83
bas,axc,2,102008,bas_axc_run2_102008,AX,4000,A,X,white,center,1,2,571,1,1,382,1,2,1,237635,242434,242816,238206,37810,21,1,199.825,200.396,204.624,205.006,28.419,260.015,491.612,231.62,463.233,694.83
bas,axc,2,102008,bas_axc_run2_102008,BY,1600,F,D,white,center,1,1,727,1,1,412,1,1,1,247233,252033,252445,247960,37810,22,1,209.423,210.15,214.223,214.635,28.419,260.015,491.612,231.62,463.233,694.83
bas,axc,2,102008,bas_axc_run2_102008,AX,1600,A,X,white,center,1,2,540,1,1,392,1,2,1,254432,259231,259623,254972,37810,23,1,216.622,217.162,221.421,221.813,28.419,260.015,491.612,231.62,463.233,694.83
bas,axc,2,102008,bas_axc_run2_102008,BY,2800,P,T,white,center,1,1,373,1,1,433,1,1,1,261631,266430,266863,262004,37810,24,1,223.821,224.194,228.62,229.053,28.419,260.015,491.612,231.62,463.233,694.83
bas,axc,2,102008,bas_axc_run2_102008,BX,4000,H,X,white,center,1,1,470,1,1,408,1,1,1,300025,304824,305232,300495,37810,25,1,262.215,262.685,267.014,267.422,28.419,260.015,491.612,231.62,463.233,694.83
bas,axc,2,102008,bas_axc_run2_102008,Ang,1600,A,4,white,center,1,,444,1,1,0,1,,1,309623,314423,0,310067,37810,26,1,271.813,272.257,276.613,-37.81,28.419,260.015,491.612,231.62,463.233,694.83
bas,axc,2,102008,bas_axc_run2_102008,Ang,4000,A,2,white,center,1,,358,1,1,0,1,,1,316822,321622,0,317180,37810,27,1,279.012,279.37,283.812,-37.81,28.419,260.015,491.612,231.62,463.233,694.83
bas,axc,2,102008,bas_axc_run2_102008,AX,2800,A,X,white,center,1,2,376,1,1,475,1,2,1,326421,331220,331695,326797,37810,28,1,288.611,288.987,293.41,293.885,28.419,260.015,491.612,231.62,463.233,694.83
bas,axc,2,102008,bas_axc_run2_102008,AX,1600,A,X,white,center,1,2,293,1,1,392,1,2,1,334820,339619,340011,335113,37810,29,1,297.01,297.303,301.809,302.201,28.419,260.015,491.612,231.62,463.233,694.83
bas,axc,2,102008,bas_axc_run2_102008,Bng,2800,M,8,white,center,1,,645,1,1,0,1,,1,342035,346834,0,342680,37810,30,1,304.225,304.87,309.024,-37.81,28.419,260.015,491.612,231.62,463.233,694.83
bas,axc,2,102008,bas_axc_run2_102008,AX,4000,A,X,white,center,1,2,362,1,1,244,1,2,1,350434,355233,355477,350796,37810,31,1,312.624,312.986,317.423,317.667,28.419,260.015,491.612,231.62,463.233,694.83
bas,axc,2,102008,bas_axc_run2_102008,AX,1600,A,X,white,center,1,2,431,1,1,345,1,2,1,360032,364831,365176,360463,37810,32,1,322.222,322.653,327.021,327.366,28.419,260.015,491.612,231.62,463.233,694.83
bas,axc,2,102008,bas_axc_run2_102008,BY,1600,N,D,white,center,1,1,600,1,1,521,1,1,1,367231,372030,372551,367831,37810,33,1,329.421,330.021,334.22,334.741,28.419,260.015,491.612,231.62,463.233,694.83
bas,axc,2,102008,bas_axc_run2_102008,BY,2800,U,F,white,center,1,1,543,1,1,602,1,1,1,374430,379229,379831,374973,37810,34,1,336.62,337.163,341.419,342.021,28.419,260.015,491.612,231.62,463.233,694.83
bas,axc,2,102008,bas_axc_run2_102008,BY,2800,C,F,white,center,1,1,374,1,1,359,1,1,1,382829,387628,387987,383203,37810,35,1,345.019,345.393,349.818,350.177,28.419,260.015,491.612,231.62,463.233,694.83
bas,axc,2,102008,bas_axc_run2_102008,AY,4000,A,U,white,center,1,1,382,1,1,477,1,1,1,391227,396026,396503,391609,37810,36,1,353.417,353.799,358.216,358.693,28.419,260.015,491.612,231.62,463.233,694.83
bas,axc,2,102008,bas_axc_run2_102008,AX,4000,A,X,white,center,1,2,279,1,1,350,1,2,1,400826,405625,405975,401105,37810,37,1,363.016,363.295,367.815,368.165,28.419,260.015,491.612,231.62,463.233,694.83
bas,axc,2,102008,bas_axc_run2_102008,AY,2800,A,M,white,center,1,1,341,1,1,620,1,1,1,410424,415223,415843,410765,37810,38,1,372.614,372.955,377.413,378.033,28.419,260.015,491.612,231.62,463.233,694.83
bas,axc,2,102008,bas_axc_run2_102008,BY,2800,M,N,white,center,1,1,371,1,1,351,1,1,1,418823,423622,423973,419194,37810,39,1,381.013,381.384,385.812,386.163,28.419,260.015,491.612,231.62,463.233,694.83
bas,axc,2,102008,bas_axc_run2_102008,Bng,1600,C,7,white,center,1,,349,1,1,0,1,,1,427222,432021,0,427571,37810,40,1,389.412,389.761,394.211,-37.81,28.419,260.015,491.612,231.62,463.233,694.83
bas,axc,2,102008,bas_axc_run2_102008,BX,1600,N,X,white,center,1,1,354,1,1,0,0,,0,434420,439220,0,434774,37810,41,0,396.61,396.964,401.41,-37.81,28.419,260.015,491.612,231.62,463.233,694.83
bas,axc,2,102008,bas_axc_run2_102008,AX,4000,A,X,white,center,1,2,697,1,1,226,1,2,1,441619,446435,446661,442316,37810,42,1,403.809,404.506,408.625,408.851,28.419,260.015,491.612,231.62,463.233,694.83
bas,axc,2,102008,bas_axc_run2_102008,AX,1600,A,X,white,center,1,2,366,1,1,360,1,2,1,451234,456034,456394,451600,37810,43,1,413.424,413.79,418.224,418.584,28.419,260.015,491.612,231.62,463.233,694.83
bas,axc,2,102008,bas_axc_run2_102008,BY,2800,N,H,white,center,1,1,542,1,1,1103,1,1,1,458433,463232,464335,458975,37810,44,1,420.623,421.165,425.422,426.525,28.419,260.015,491.612,231.62,463.233,694.83
bas,axc,2,102008,bas_axc_run2_102008,BY,4000,F,H,white,center,1,1,448,1,1,489,1,1,1,466832,471631,472120,467280,37810,45,1,429.022,429.47,433.821,434.31,28.419,260.015,491.612,231.62,463.233,694.83
bas,axc,2,102008,bas_axc_run2_102008,BY,2800,U,T,white,center,1,1,473,1,1,437,1,1,1,476430,481230,481667,476903,37810,46,1,438.62,439.093,443.42,443.857,28.419,260.015,491.612,231.62,463.233,694.83
bas,axc,2,102008,bas_axc_run2_102008,AX,4000,A,X,white,center,1,2,1015,1,1,492,1,2,1,484829,489628,490120,485844,37810,47,1,447.019,448.034,451.818,452.31,28.419,260.015,491.612,231.62,463.233,694.83
bas,axc,2,102008,bas_axc_run2_102008,BY,1600,C,N,white,center,1,1,353,1,1,351,1,1,1,494428,499227,499578,494781,37810,48,1,456.618,456.971,461.417,461.768,28.419,260.015,491.612,231.62,463.233,694.83
bas,axc,2,102008,bas_axc_run2_102008,AX,2800,A,X,white,center,1,2,363,1,1,350,1,2,1,531622,536421,536771,531985,37810,49,1,493.812,494.175,498.611,498.961,28.419,260.015,491.612,231.62,463.233,694.83
bas,axc,2,102008,bas_axc_run2_102008,AY,4000,A,C,white,center,1,1,331,1,1,499,0,2,0,540020,544820,545319,540351,37810,50,0,502.21,502.541,507.01,507.509,28.419,260.015,491.612,231.62,463.233,694.83
bas,axc,2,102008,bas_axc_run2_102008,Bng,1600,U,6,white,center,1,,605,1,1,0,1,,1,549619,554435,0,550224,37810,51,1,511.809,512.414,516.625,-37.81,28.419,260.015,491.612,231.62,463.233,694.83
bas,axc,2,102008,bas_axc_run2_102008,Ang,2800,A,6,white,center,1,,401,1,1,0,1,,1,556834,561634,0,557235,37810,52,1,519.024,519.425,523.824,-37.81,28.419,260.015,491.612,231.62,463.233,694.83
bas,axc,2,102008,bas_axc_run2_102008,AX,1600,A,X,white,center,1,2,459,1,1,542,1,2,1,565233,570032,570574,565692,37810,53,1,527.423,527.882,532.222,532.764,28.419,260.015,491.612,231.62,463.233,694.83
bas,axc,2,102008,bas_axc_run2_102008,BY,2800,T,H,white,center,1,1,630,1,1,682,1,1,1,572432,577231,577913,573062,37810,54,1,534.622,535.252,539.421,540.103,28.419,260.015,491.612,231.62,463.233,694.83
bas,axc,2,102008,bas_axc_run2_102008,AX,1600,A,X,white,center,1,2,393,1,1,331,1,2,1,580831,585630,585961,581224,37810,55,1,543.021,543.414,547.82,548.151,28.419,260.015,491.612,231.62,463.233,694.83
bas,axc,2,102008,bas_axc_run2_102008,BY,4000,H,F,white,center,1,1,534,1,1,402,1,1,1,588029,592829,593231,588563,37810,56,1,550.219,550.753,555.019,555.421,28.419,260.015,491.612,231.62,463.233,694.83
bas,axc,2,102008,bas_axc_run2_102008,BY,1600,U,F,white,center,1,1,580,1,1,382,1,1,1,597628,602427,602809,598208,37810,57,1,559.818,560.398,564.617,564.999,28.419,260.015,491.612,231.62,463.233,694.83
bas,axc,2,102008,bas_axc_run2_102008,AX,2800,A,X,white,center,1,2,455,1,1,439,1,2,1,604827,609626,610065,605282,37810,58,1,567.017,567.472,571.816,572.255,28.419,260.015,491.612,231.62,463.233,694.83
bas,axc,2,102008,bas_axc_run2_102008,Ang,4000,A,4,white,center,1,,334,1,1,0,1,,1,613225,618025,0,613559,37810,59,1,575.415,575.749,580.215,-37.81,28.419,260.015,491.612,231.62,463.233,694.83
bas,axc,2,102008,bas_axc_run2_102008,BY,4000,C,N,white,center,1,1,450,1,1,885,1,1,1,622824,627623,628508,623274,37810,60,1,585.014,585.464,589.813,590.698,28.419,260.015,491.612,231.62,463.233,694.83
bas,axc,2,102008,bas_axc_run2_102008,BY,4000,H,C,white,center,1,1,474,1,1,467,1,1,1,632422,637222,637689,632896,37810,61,1,594.612,595.086,599.412,599.879,28.419,260.015,491.612,231.62,463.233,694.83
bas,axc,2,102008,bas_axc_run2_102008,AX,4000,A,X,white,center,1,2,418,1,1,556,1,2,1,642021,646820,647376,642439,37810,62,1,604.211,604.629,609.01,609.566,28.419,260.015,491.612,231.62,463.233,694.83
bas,axc,2,102008,bas_axc_run2_102008,BX,2800,D,X,white,center,1,1,520,1,1,750,1,1,1,651619,656419,657169,652139,37810,63,1,613.809,614.329,618.609,619.359,28.419,260.015,491.612,231.62,463.233,694.83
bas,axc,2,102008,bas_axc_run2_102008,BX,4000,T,X,white,center,1,1,414,1,1,735,1,1,1,660035,664834,665569,660449,37810,64,1,622.225,622.639,627.024,627.759,28.419,260.015,491.612,231.62,463.233,694.83
bas,axc,2,102008,bas_axc_run2_102008,Bng,4000,N,4,white,center,1,,334,1,1,0,1,,1,669633,674432,0,669967,37810,65,1,631.823,632.157,636.622,-37.81,28.419,260.015,491.612,231.62,463.233,694.83
bas,axc,2,102008,bas_axc_run2_102008,BY,1600,D,C,white,center,1,1,385,1,1,524,1,1,1,679232,684031,684555,679617,37810,66,1,641.422,641.807,646.221,646.745,28.419,260.015,491.612,231.62,463.233,694.83
bas,axc,2,102008,bas_axc_run2_102008,BY,1600,P,T,white,center,1,1,395,1,1,432,1,1,1,686430,691230,691662,686825,37810,67,1,648.62,649.015,653.42,653.852,28.419,260.015,491.612,231.62,463.233,694.83
bas,axc,2,102008,bas_axc_run2_102008,AY,2800,A,C,white,center,1,1,484,1,1,490,1,1,1,693629,698429,698919,694113,37810,68,1,655.819,656.303,660.619,661.109,28.419,260.015,491.612,231.62,463.233,694.83
bas,axc,2,102008,bas_axc_run2_102008,BY,1600,D,U,white,center,1,1,437,1,1,410,1,1,1,702028,706827,707237,702465,37810,69,1,664.218,664.655,669.017,669.427,28.419,260.015,491.612,231.62,463.233,694.83
bas,axc,2,102008,bas_axc_run2_102008,AX,2800,A,X,white,center,1,2,493,1,1,334,1,2,1,709227,714026,714360,709720,37810,70,1,671.417,671.91,676.216,676.55,28.419,260.015,491.612,231.62,463.233,694.83
bas,axc,2,102008,bas_axc_run2_102008,AX,1600,A,X,white,center,1,2,341,1,1,579,1,2,1,717625,722425,723004,717966,37810,71,1,679.815,680.156,684.615,685.194,28.419,260.015,491.612,231.62,463.233,694.83
bas,axc,2,102008,bas_axc_run2_102008,AX,2800,A,X,white,center,1,2,375,1,1,317,1,2,1,724824,729624,729941,725199,37810,72,1,687.014,687.389,691.814,692.131,28.419,260.015,491.612,231.62,463.233,694.83
bas,axc,1,107321,bas_axc_run1_107321,AX,4000,A,X,white,center,1,2,468,1,1,570,1,2,1,184647,189447,190017,185115,154025,1,1,30.622,31.09,35.422,35.992,28.422,260.019,491.616,231.646,463.243,694.839
bas,axc,1,107321,bas_axc_run1_107321,BY,2800,T,M,white,center,1,1,393,1,1,440,1,1,1,194247,199047,199487,194640,154025,2,1,40.222,40.615,45.022,45.462,28.422,260.019,491.616,231.646,463.243,694.839
bas,axc,1,107321,bas_axc_run1_107321,BY,4000,U,D,white,center,1,1,424,1,1,413,1,1,1,202647,207447,207860,203071,154025,3,1,48.622,49.046,53.422,53.835,28.422,260.019,491.616,231.646,463.243,694.839
bas,axc,1,107321,bas_axc_run1_107321,Ang,2800,A,7,white,center,1,,337,1,1,407,0,1,0,212247,217047,217454,212584,154025,4,0,58.222,58.559,63.022,63.429,28.422,260.019,491.616,231.646,463.243,694.839
bas,axc,1,107321,bas_axc_run1_107321,AY,1600,A,D,white,center,1,1,408,1,1,672,1,1,1,220647,225447,226119,221055,154025,5,1,66.622,67.03,71.422,72.094,28.422,260.019,491.616,231.646,463.243,694.839
bas,axc,1,107321,bas_axc_run1_107321,Bng,2800,U,5,white,center,1,,422,1,1,0,1,,1,227847,232647,0,228269,154025,6,1,73.822,74.244,78.622,-154.025,28.422,260.019,491.616,231.646,463.243,694.839
bas,axc,1,107321,bas_axc_run1_107321,BY,2800,F,M,white,center,1,1,497,1,1,347,1,1,1,236247,241047,241394,236744,154025,7,1,82.222,82.719,87.022,87.369,28.422,260.019,491.616,231.646,463.243,694.839
bas,axc,1,107321,bas_axc_run1_107321,AX,1600,A,X,white,center,1,2,398,1,1,288,1,2,1,244646,249446,249734,245044,154025,8,1,90.621,91.019,95.421,95.709,28.422,260.019,491.616,231.646,463.243,694.839
bas,axc,1,107321,bas_axc_run1_107321,AY,1600,A,N,white,center,1,1,341,1,1,419,1,1,1,251846,256646,257065,252187,154025,9,1,97.821,98.162,102.621,103.04,28.422,260.019,491.616,231.646,463.243,694.839
bas,axc,1,107321,bas_axc_run1_107321,AX,1600,A,X,white,center,1,2,183,1,1,279,1,2,1,259046,263846,264125,259229,154025,10,1,105.021,105.204,109.821,110.1,28.422,260.019,491.616,231.646,463.243,694.839
bas,axc,1,107321,bas_axc_run1_107321,BY,4000,P,M,white,center,1,1,210,1,1,362,1,1,1,266246,271046,271408,266456,154025,11,1,112.221,112.431,117.021,117.383,28.422,260.019,491.616,231.646,463.243,694.839
bas,axc,1,107321,bas_axc_run1_107321,AX,4000,A,X,white,center,1,2,101,1,1,395,1,2,1,275846,280646,281041,275947,154025,12,1,121.821,121.922,126.621,127.016,28.422,260.019,491.616,231.646,463.243,694.839
bas,axc,1,107321,bas_axc_run1_107321,AX,2800,A,X,white,center,1,2,219,1,1,309,1,2,1,285446,290246,290555,285665,154025,13,1,131.421,131.64,136.221,136.53,28.422,260.019,491.616,231.646,463.243,694.839
bas,axc,1,107321,bas_axc_run1_107321,BY,2800,F,C,white,center,1,1,249,1,1,278,1,1,1,293846,298646,298924,294095,154025,14,1,139.821,140.07,144.621,144.899,28.422,260.019,491.616,231.646,463.243,694.839
bas,axc,1,107321,bas_axc_run1_107321,Ang,1600,A,5,white,center,1,,268,1,1,0,1,,1,302246,307046,0,302514,154025,15,1,148.221,148.489,153.021,-154.025,28.422,260.019,491.616,231.646,463.243,694.839
bas,axc,1,107321,bas_axc_run1_107321,BX,2800,F,X,white,center,1,1,344,1,1,550,0,2,0,309446,314245,314795,309790,154025,16,0,155.421,155.765,160.22,160.77,28.422,260.019,491.616,231.646,463.243,694.839
bas,axc,1,107321,bas_axc_run1_107321,BY,4000,U,P,white,center,1,1,220,1,1,283,1,1,1,317845,322645,322928,318065,154025,17,1,163.82,164.04,168.62,168.903,28.422,260.019,491.616,231.646,463.243,694.839
bas,axc,1,107321,bas_axc_run1_107321,AX,2800,A,X,white,center,1,2,374,1,1,463,1,2,1,327445,332245,332708,327819,154025,18,1,173.42,173.794,178.22,178.683,28.422,260.019,491.616,231.646,463.243,694.839
bas,axc,1,107321,bas_axc_run1_107321,BX,4000,M,X,white,center,1,1,326,1,1,396,1,1,1,335845,340645,341041,336171,154025,19,1,181.82,182.146,186.62,187.016,28.422,260.019,491.616,231.646,463.243,694.839
bas,axc,1,107321,bas_axc_run1_107321,BY,4000,C,D,white,center,1,1,208,1,1,372,1,1,1,345445,350245,350617,345653,154025,20,1,191.42,191.628,196.22,196.592,28.422,260.019,491.616,231.646,463.243,694.839
bas,axc,1,107321,bas_axc_run1_107321,AX,1600,A,X,white,center,1,2,217,1,1,319,1,2,1,355045,359845,360164,355262,154025,21,1,201.02,201.237,205.82,206.139,28.422,260.019,491.616,231.646,463.243,694.839
bas,axc,1,107321,bas_axc_run1_107321,Bng,1600,P,9,white,center,1,,275,1,1,0,1,,1,362245,367045,0,362520,154025,22,1,208.22,208.495,213.02,-154.025,28.422,260.019,491.616,231.646,463.243,694.839
bas,axc,1,107321,bas_axc_run1_107321,BY,1600,C,M,white,center,1,1,24,1,1,292,1,1,1,369445,374245,374537,369469,154025,23,1,215.42,215.444,220.22,220.512,28.422,260.019,491.616,231.646,463.243,694.839
bas,axc,1,107321,bas_axc_run1_107321,AX,4000,A,X,white,center,1,2,302,1,1,295,1,2,1,376645,381444,381739,376947,154025,24,1,222.62,222.922,227.419,227.714,28.422,260.019,491.616,231.646,463.243,694.839
bas,axc,1,107321,bas_axc_run1_107321,AY,2800,A,H,white,center,1,1,341,1,1,559,1,1,1,416244,421044,421603,416585,154025,25,1,262.219,262.56,267.019,267.578,28.422,260.019,491.616,231.646,463.243,694.839
bas,axc,1,107321,bas_axc_run1_107321,AX,1600,A,X,white,center,1,2,244,1,1,406,1,2,1,424644,429444,429850,424888,154025,26,1,270.619,270.863,275.419,275.825,28.422,260.019,491.616,231.646,463.243,694.839
bas,axc,1,107321,bas_axc_run1_107321,BX,1600,C,X,white,center,1,1,227,1,1,213,1,1,1,431844,436644,436857,432071,154025,27,1,277.819,278.046,282.619,282.832,28.422,260.019,491.616,231.646,463.243,694.839
bas,axc,1,107321,bas_axc_run1_107321,AX,1600,A,X,white,center,1,2,259,1,1,244,1,2,1,439044,443844,444088,439303,154025,28,1,285.019,285.278,289.819,290.063,28.422,260.019,491.616,231.646,463.243,694.839
bas,axc,1,107321,bas_axc_run1_107321,Bng,2800,N,5,white,center,1,,240,1,1,0,1,,1,446244,451043,0,446484,154025,29,1,292.219,292.459,297.018,-154.025,28.422,260.019,491.616,231.646,463.243,694.839
bas,axc,1,107321,bas_axc_run1_107321,Bng,2800,M,4,white,center,1,,352,1,1,0,1,,1,454643,459443,0,454995,154025,30,1,300.618,300.97,305.418,-154.025,28.422,260.019,491.616,231.646,463.243,694.839
bas,axc,1,107321,bas_axc_run1_107321,Ang,4000,A,3,white,center,1,,342,1,1,0,1,,1,463043,467843,0,463385,154025,31,1,309.018,309.36,313.818,-154.025,28.422,260.019,491.616,231.646,463.243,694.839
bas,axc,1,107321,bas_axc_run1_107321,AY,4000,A,T,white,center,1,1,291,1,1,442,1,1,1,472643,477443,477885,472934,154025,32,1,318.618,318.909,323.418,323.86,28.422,260.019,491.616,231.646,463.243,694.839
bas,axc,1,107321,bas_axc_run1_107321,BY,4000,N,P,white,center,1,1,179,1,1,185,1,1,1,482243,487043,487228,482422,154025,33,1,328.218,328.397,333.018,333.203,28.422,260.019,491.616,231.646,463.243,694.839
bas,axc,1,107321,bas_axc_run1_107321,Ang,1600,A,1,white,center,1,,363,1,1,0,1,,1,491843,496643,0,492206,154025,34,1,337.818,338.181,342.618,-154.025,28.422,260.019,491.616,231.646,463.243,694.839
bas,axc,1,107321,bas_axc_run1_107321,AX,4000,A,X,white,center,1,2,339,1,1,270,1,2,1,499043,503843,504113,499382,154025,35,1,345.018,345.357,349.818,350.088,28.422,260.019,491.616,231.646,463.243,694.839
bas,axc,1,107321,bas_axc_run1_107321,AX,2800,A,X,white,center,1,2,57,1,1,521,1,2,1,508643,513443,513964,508700,154025,36,1,354.618,354.675,359.418,359.939,28.422,260.019,491.616,231.646,463.243,694.839
bas,axc,1,107321,bas_axc_run1_107321,AX,2800,A,X,white,center,1,2,304,1,1,290,1,2,1,517043,521842,522132,517347,154025,37,1,363.018,363.322,367.817,368.107,28.422,260.019,491.616,231.646,463.243,694.839
bas,axc,1,107321,bas_axc_run1_107321,BX,1600,U,X,white,center,1,1,178,1,1,324,1,1,1,525442,530242,530566,525620,154025,38,1,371.417,371.595,376.217,376.541,28.422,260.019,491.616,231.646,463.243,694.839
bas,axc,1,107321,bas_axc_run1_107321,AX,2800,A,X,white,center,1,2,248,1,1,369,0,1,0,532642,537442,537811,532890,154025,39,0,378.617,378.865,383.417,383.786,28.422,260.019,491.616,231.646,463.243,694.839
bas,axc,1,107321,bas_axc_run1_107321,BY,4000,H,U,white,center,1,1,396,1,1,494,1,1,1,541042,545842,546336,541438,154025,40,1,387.017,387.413,391.817,392.311,28.422,260.019,491.616,231.646,463.243,694.839
bas,axc,1,107321,bas_axc_run1_107321,BY,2800,T,N,white,center,1,1,392,1,1,314,1,1,1,550642,555442,555756,551034,154025,41,1,396.617,397.009,401.417,401.731,28.422,260.019,491.616,231.646,463.243,694.839
bas,axc,1,107321,bas_axc_run1_107321,AX,4000,A,X,white,center,1,2,224,1,1,326,1,2,1,559042,563842,564168,559266,154025,42,1,405.017,405.241,409.817,410.143,28.422,260.019,491.616,231.646,463.243,694.839
bas,axc,1,107321,bas_axc_run1_107321,BY,4000,M,P,white,center,1,1,412,1,1,228,1,1,1,568642,573442,573670,569054,154025,43,1,414.617,415.029,419.417,419.645,28.422,260.019,491.616,231.646,463.243,694.839
bas,axc,1,107321,bas_axc_run1_107321,BY,2800,D,N,white,center,1,1,86,1,1,96,1,1,1,578242,583042,583138,578328,154025,44,1,424.217,424.303,429.017,429.113,28.422,260.019,491.616,231.646,463.243,694.839
bas,axc,1,107321,bas_axc_run1_107321,BY,1600,M,F,white,center,1,1,251,1,1,250,1,1,1,586642,591441,591691,586893,154025,45,1,432.617,432.868,437.416,437.666,28.422,260.019,491.616,231.646,463.243,694.839
bas,axc,1,107321,bas_axc_run1_107321,AX,1600,A,X,white,center,1,2,467,1,1,273,1,2,1,593841,598641,598914,594308,154025,46,1,439.816,440.283,444.616,444.889,28.422,260.019,491.616,231.646,463.243,694.839
bas,axc,1,107321,bas_axc_run1_107321,BY,1600,N,U,white,center,1,1,354,1,1,382,1,1,1,601041,605841,606223,601395,154025,47,1,447.016,447.37,451.816,452.198,28.422,260.019,491.616,231.646,463.243,694.839
bas,axc,1,107321,bas_axc_run1_107321,BY,4000,P,H,white,center,1,1,403,1,1,313,1,1,1,608241,613041,613354,608644,154025,48,1,454.216,454.619,459.016,459.329,28.422,260.019,491.616,231.646,463.243,694.839
bas,axc,1,107321,bas_axc_run1_107321,AX,4000,A,X,white,center,1,2,554,1,1,302,1,2,1,647841,652641,652943,648395,154025,49,1,493.816,494.37,498.616,498.918,28.422,260.019,491.616,231.646,463.243,694.839
bas,axc,1,107321,bas_axc_run1_107321,BY,1600,D,T,white,center,1,1,411,1,1,88,1,1,1,657441,662240,662328,657852,154025,50,1,503.416,503.827,508.215,508.303,28.422,260.019,491.616,231.646,463.243,694.839
bas,axc,1,107321,bas_axc_run1_107321,AX,1600,A,X,white,center,1,2,220,1,1,429,1,2,1,664640,669440,669869,664860,154025,51,1,510.615,510.835,515.415,515.844,28.422,260.019,491.616,231.646,463.243,694.839
bas,axc,1,107321,bas_axc_run1_107321,BY,4000,H,T,white,center,1,1,314,1,1,431,1,1,1,671840,676640,677071,672154,154025,52,1,517.815,518.129,522.615,523.046,28.422,260.019,491.616,231.646,463.243,694.839
bas,axc,1,107321,bas_axc_run1_107321,AX,2800,A,X,white,center,1,2,214,1,1,261,1,2,1,681440,686240,686501,681654,154025,53,1,527.415,527.629,532.215,532.476,28.422,260.019,491.616,231.646,463.243,694.839
bas,axc,1,107321,bas_axc_run1_107321,BX,1600,P,X,white,center,1,1,473,1,1,555,0,2,0,689840,694640,695195,690313,154025,54,0,535.815,536.288,540.615,541.17,28.422,260.019,491.616,231.646,463.243,694.839
bas,axc,1,107321,bas_axc_run1_107321,BY,2800,H,T,white,center,1,1,341,1,1,391,1,1,1,697040,701840,702231,697381,154025,55,1,543.015,543.356,547.815,548.206,28.422,260.019,491.616,231.646,463.243,694.839
bas,axc,1,107321,bas_axc_run1_107321,AY,4000,A,N,white,center,1,1,337,1,1,432,1,1,1,705440,710240,710672,705777,154025,56,1,551.415,551.752,556.215,556.647,28.422,260.019,491.616,231.646,463.243,694.839
bas,axc,1,107321,bas_axc_run1_107321,Ang,1600,A,9,white,center,1,,357,1,1,0,1,,1,715040,719840,0,715397,154025,57,1,561.015,561.372,565.815,-154.025,28.422,260.019,491.616,231.646,463.243,694.839
bas,axc,1,107321,bas_axc_run1_107321,BY,2800,N,P,white,center,1,1,249,1,1,194,1,1,1,722240,727053,727247,722489,154025,58,1,568.215,568.464,573.028,573.222,28.422,260.019,491.616,231.646,463.243,694.839
bas,axc,1,107321,bas_axc_run1_107321,AX,4000,A,X,white,center,1,2,505,1,1,598,1,2,1,730653,735453,736051,731158,154025,59,1,576.628,577.133,581.428,582.026,28.422,260.019,491.616,231.646,463.243,694.839
bas,axc,1,107321,bas_axc_run1_107321,AX,2800,A,X,white,center,1,2,240,1,1,463,1,2,1,740253,745053,745516,740493,154025,60,1,586.228,586.468,591.028,591.491,28.422,260.019,491.616,231.646,463.243,694.839
bas,axc,1,107321,bas_axc_run1_107321,AX,2800,A,X,white,center,1,2,127,1,1,325,1,2,1,748653,753452,753777,748780,154025,61,1,594.628,594.755,599.427,599.752,28.422,260.019,491.616,231.646,463.243,694.839
bas,axc,1,107321,bas_axc_run1_107321,AX,4000,A,X,white,center,1,2,260,1,1,395,0,1,0,757052,761852,762247,757312,154025,62,0,603.027,603.287,607.827,608.222,28.422,260.019,491.616,231.646,463.243,694.839
bas,axc,1,107321,bas_axc_run1_107321,AY,4000,A,T,white,center,1,1,256,1,1,420,1,1,1,766652,771452,771872,766908,154025,63,1,612.627,612.883,617.427,617.847,28.422,260.019,491.616,231.646,463.243,694.839
bas,axc,1,107321,bas_axc_run1_107321,BY,1600,N,U,white,center,1,1,306,1,1,373,1,1,1,776252,781052,781425,776558,154025,64,1,622.227,622.533,627.027,627.4,28.422,260.019,491.616,231.646,463.243,694.839
bas,axc,1,107321,bas_axc_run1_107321,BY,1600,T,M,white,center,1,1,1104,1,1,341,1,1,1,783452,788252,788593,784556,154025,65,1,629.427,630.531,634.227,634.568,28.422,260.019,491.616,231.646,463.243,694.839
bas,axc,1,107321,bas_axc_run1_107321,BY,1600,D,N,white,center,1,1,354,1,1,338,1,1,1,790652,795452,795790,791006,154025,66,1,636.627,636.981,641.427,641.765,28.422,260.019,491.616,231.646,463.243,694.839
bas,axc,1,107321,bas_axc_run1_107321,Bng,4000,D,2,white,center,1,,344,1,1,458,0,1,0,797852,802652,803110,798196,154025,67,0,643.827,644.171,648.627,649.085,28.422,260.019,491.616,231.646,463.243,694.839
bas,axc,1,107321,bas_axc_run1_107321,Bng,2800,T,9,white,center,1,,305,1,1,287,0,1,0,807452,812252,812539,807757,154025,68,0,653.427,653.732,658.227,658.514,28.422,260.019,491.616,231.646,463.243,694.839
bas,axc,1,107321,bas_axc_run1_107321,BX,2800,M,X,white,center,1,1,450,1,1,637,1,1,1,815852,820651,821288,816302,154025,69,1,661.827,662.277,666.626,667.263,28.422,260.019,491.616,231.646,463.243,694.839
bas,axc,1,107321,bas_axc_run1_107321,BY,1600,C,D,white,center,1,1,322,1,1,317,1,1,1,824251,829051,829368,824573,154025,70,1,670.226,670.548,675.026,675.343,28.422,260.019,491.616,231.646,463.243,694.839
bas,axc,1,107321,bas_axc_run1_107321,Ang,2800,A,9,white,center,1,,299,1,1,0,1,,1,831451,836251,0,831750,154025,71,1,677.426,677.725,682.226,-154.025,28.422,260.019,491.616,231.646,463.243,694.839
bas,axc,1,107321,bas_axc_run1_107321,AX,4000,A,X,white,center,1,2,251,1,1,360,1,2,1,839851,844651,845011,840102,154025,72,1,685.826,686.077,690.626,690.986,28.422,260.019,491.616,231.646,463.243,694.839
bas,axc,2,107321,bas_axc_run2_107321,AX,1600,A,X,white,center,1,2,533,1,1,317,1,2,1,77815,82615,82932,78348,47211,1,1,30.604,31.137,35.404,35.721,28.404,260.014,491.61,231.627,463.224,694.821
bas,axc,2,107321,bas_axc_run2_107321,AX,1600,A,X,white,center,1,2,281,1,1,500,1,2,1,85015,89814,90314,85296,47211,2,1,37.804,38.085,42.603,43.103,28.404,260.014,491.61,231.627,463.224,694.821
bas,axc,2,107321,bas_axc_run2_107321,AY,2800,A,M,white,center,1,1,205,1,1,607,1,1,1,92214,97014,97621,92419,47211,3,1,45.003,45.208,49.803,50.41,28.404,260.014,491.61,231.627,463.224,694.821
bas,axc,2,107321,bas_axc_run2_107321,BY,1600,T,P,white,center,1,1,48,1,1,449,1,1,1,100614,105414,105863,100662,47211,4,1,53.403,53.451,58.203,58.652,28.404,260.014,491.61,231.627,463.224,694.821
bas,axc,2,107321,bas_axc_run2_107321,BY,4000,U,T,white,center,1,1,195,1,1,327,1,1,1,107814,112614,112941,108009,47211,5,1,60.603,60.798,65.403,65.73,28.404,260.014,491.61,231.627,463.224,694.821
bas,axc,2,107321,bas_axc_run2_107321,BY,4000,P,C,white,center,1,1,237,1,1,105,1,1,1,117414,122214,122319,117651,47211,6,1,70.203,70.44,75.003,75.108,28.404,260.014,491.61,231.627,463.224,694.821
bas,axc,2,107321,bas_axc_run2_107321,AX,1600,A,X,white,center,1,2,132,1,1,541,1,2,1,127014,131814,132355,127146,47211,7,1,79.803,79.935,84.603,85.144,28.404,260.014,491.61,231.627,463.224,694.821
bas,axc,2,107321,bas_axc_run2_107321,Bng,2800,H,1,white,center,1,,324,1,1,0,1,,1,134214,139014,0,134538,47211,8,1,87.003,87.327,91.803,-47.211,28.404,260.014,491.61,231.627,463.224,694.821
bas,axc,2,107321,bas_axc_run2_107321,BX,4000,H,X,white,center,1,1,168,1,1,629,1,1,1,142614,147414,148043,142782,47211,9,1,95.403,95.571,100.203,100.832,28.404,260.014,491.61,231.627,463.224,694.821
bas,axc,2,107321,bas_axc_run2_107321,BY,2800,N,H,white,center,1,1,243,1,1,314,1,1,1,152214,157014,157328,152457,47211,10,1,105.003,105.246,109.803,110.117,28.404,260.014,491.61,231.627,463.224,694.821
bas,axc,2,107321,bas_axc_run2_107321,BY,4000,N,D,white,center,1,1,349,1,1,270,1,1,1,160613,165413,165683,160962,47211,11,1,113.402,113.751,118.202,118.472,28.404,260.014,491.61,231.627,463.224,694.821
bas,axc,2,107321,bas_axc_run2_107321,BX,2800,T,X,white,center,1,1,676,1,1,610,1,1,1,170213,175013,175623,170889,47211,12,1,123.002,123.678,127.802,128.412,28.404,260.014,491.61,231.627,463.224,694.821
bas,axc,2,107321,bas_axc_run2_107321,AX,1600,A,X,white,center,1,2,116,1,1,413,1,2,1,178613,183413,183826,178729,47211,13,1,131.402,131.518,136.202,136.615,28.404,260.014,491.61,231.627,463.224,694.821
bas,axc,2,107321,bas_axc_run2_107321,AX,2800,A,X,white,center,1,2,416,1,1,376,1,2,1,185813,190613,190989,186229,47211,14,1,138.602,139.018,143.402,143.778,28.404,260.014,491.61,231.627,463.224,694.821
bas,axc,2,107321,bas_axc_run2_107321,Ang,2800,A,2,white,center,1,,263,1,1,0,1,,1,194213,199013,0,194476,47211,15,1,147.002,147.265,151.802,-47.211,28.404,260.014,491.61,231.627,463.224,694.821
bas,axc,2,107321,bas_axc_run2_107321,BY,1600,U,F,white,center,1,1,275,1,1,422,1,1,1,202613,207413,207835,202888,47211,16,1,155.402,155.677,160.202,160.624,28.404,260.014,491.61,231.627,463.224,694.821
bas,axc,2,107321,bas_axc_run2_107321,AY,1600,A,F,white,center,1,1,185,1,1,510,0,2,0,209813,214613,215123,209998,47211,17,0,162.602,162.787,167.402,167.912,28.404,260.014,491.61,231.627,463.224,694.821
bas,axc,2,107321,bas_axc_run2_107321,Bng,4000,T,8,white,center,1,,138,1,1,0,1,,1,217013,221813,0,217151,47211,18,1,169.802,169.94,174.602,-47.211,28.404,260.014,491.61,231.627,463.224,694.821
bas,axc,2,107321,bas_axc_run2_107321,BY,1600,C,F,white,center,1,1,116,1,1,336,1,1,1,226613,231426,231762,226729,47211,19,1,179.402,179.518,184.215,184.551,28.404,260.014,491.61,231.627,463.224,694.821
bas,axc,2,107321,bas_axc_run2_107321,AX,4000,A,X,white,center,1,2,0,0,,288,1,2,0,233826,238626,238914,0,47211,20,0,186.615,-47.211,191.415,191.703,28.404,260.014,491.61,231.627,463.224,694.821
bas,axc,2,107321,bas_axc_run2_107321,BY,2800,M,N,white,center,1,1,207,1,1,160,1,1,1,243426,248226,248386,243633,47211,21,1,196.215,196.422,201.015,201.175,28.404,260.014,491.61,231.627,463.224,694.821
bas,axc,2,107321,bas_axc_run2_107321,AX,4000,A,X,white,center,1,2,284,1,1,299,0,1,0,251825,256625,256924,252109,47211,22,0,204.614,204.898,209.414,209.713,28.404,260.014,491.61,231.627,463.224,694.821
bas,axc,2,107321,bas_axc_run2_107321,AX,2800,A,X,white,center,1,2,112,1,1,299,1,2,1,261425,266225,266524,261537,47211,23,1,214.214,214.326,219.014,219.313,28.404,260.014,491.61,231.627,463.224,694.821
bas,axc,2,107321,bas_axc_run2_107321,Ang,4000,A,8,white,center,1,,190,1,1,0,1,,1,269825,274625,0,270015,47211,24,1,222.614,222.804,227.414,-47.211,28.404,260.014,491.61,231.627,463.224,694.821
bas,axc,2,107321,bas_axc_run2_107321,BY,4000,H,F,white,center,1,1,338,1,1,367,1,1,1,309425,314225,314592,309763,47211,25,1,262.214,262.552,267.014,267.381,28.404,260.014,491.61,231.627,463.224,694.821
bas,axc,2,107321,bas_axc_run2_107321,Ang,2800,A,4,white,center,1,,347,1,1,435,0,1,0,319025,323824,324259,319372,47211,26,0,271.814,272.161,276.613,277.048,28.404,260.014,491.61,231.627,463.224,694.821
bas,axc,2,107321,bas_axc_run2_107321,BX,2800,N,X,white,center,1,1,66,1,1,965,1,1,1,327424,332224,333189,327490,47211,27,1,280.213,280.279,285.013,285.978,28.404,260.014,491.61,231.627,463.224,694.821
bas,axc,2,107321,bas_axc_run2_107321,Bng,1600,F,3,white,center,1,,464,1,1,0,1,,1,335824,340624,0,336288,47211,28,1,288.613,289.077,293.413,-47.211,28.404,260.014,491.61,231.627,463.224,694.821
bas,axc,2,107321,bas_axc_run2_107321,BX,4000,D,X,white,center,1,1,215,1,1,770,1,1,1,343024,347824,348594,343239,47211,29,1,295.813,296.028,300.613,301.383,28.404,260.014,491.61,231.627,463.224,694.821
bas,axc,2,107321,bas_axc_run2_107321,AX,2800,A,X,white,center,1,2,176,1,1,398,1,2,1,352624,357424,357822,352800,47211,30,1,305.413,305.589,310.213,310.611,28.404,260.014,491.61,231.627,463.224,694.821
bas,axc,2,107321,bas_axc_run2_107321,AX,4000,A,X,white,center,1,2,0,0,,278,0,1,0,361024,365824,366102,0,47211,31,0,313.813,-47.211,318.613,318.891,28.404,260.014,491.61,231.627,463.224,694.821
bas,axc,2,107321,bas_axc_run2_107321,BY,1600,H,C,white,center,1,1,275,1,1,369,1,1,1,370624,375424,375793,370899,47211,32,1,323.413,323.688,328.213,328.582,28.404,260.014,491.61,231.627,463.224,694.821
bas,axc,2,107321,bas_axc_run2_107321,BY,1600,C,N,white,center,1,1,291,1,1,374,1,1,1,377824,382624,382998,378115,47211,33,1,330.613,330.904,335.413,335.787,28.404,260.014,491.61,231.627,463.224,694.821
bas,axc,2,107321,bas_axc_run2_107321,AX,2800,A,X,white,center,1,2,425,1,1,455,1,2,1,385024,389823,390278,385449,47211,34,1,337.813,338.238,342.612,343.067,28.404,260.014,491.61,231.627,463.224,694.821
bas,axc,2,107321,bas_axc_run2_107321,BY,1600,T,H,white,center,1,1,272,1,1,334,1,1,1,393423,398223,398557,393695,47211,35,1,346.212,346.484,351.012,351.346,28.404,260.014,491.61,231.627,463.224,694.821
bas,axc,2,107321,bas_axc_run2_107321,AX,4000,A,X,white,center,1,2,425,1,1,357,0,1,0,400623,405423,405780,401048,47211,36,0,353.412,353.837,358.212,358.569,28.404,260.014,491.61,231.627,463.224,694.821
bas,axc,2,107321,bas_axc_run2_107321,AX,1600,A,X,white,center,1,2,68,1,1,730,1,2,1,410223,415023,415753,410291,47211,37,1,363.012,363.08,367.812,368.542,28.404,260.014,491.61,231.627,463.224,694.821
bas,axc,2,107321,bas_axc_run2_107321,BY,1600,F,D,white,center,1,1,463,1,1,305,1,1,1,417423,422223,422528,417886,47211,38,1,370.212,370.675,375.012,375.317,28.404,260.014,491.61,231.627,463.224,694.821
bas,axc,2,107321,bas_axc_run2_107321,BY,1600,M,U,white,center,1,1,251,1,1,404,1,1,1,424623,429423,429827,424874,47211,39,1,377.412,377.663,382.212,382.616,28.404,260.014,491.61,231.627,463.224,694.821
bas,axc,2,107321,bas_axc_run2_107321,Bng,4000,C,7,white,center,1,,163,1,1,165,0,1,0,431823,436623,436788,431986,47211,40,0,384.612,384.775,389.412,389.577,28.404,260.014,491.61,231.627,463.224,694.821
bas,axc,2,107321,bas_axc_run2_107321,AY,2800,A,C,white,center,1,1,145,1,1,520,1,1,1,441423,446223,446743,441568,47211,41,1,394.212,394.357,399.012,399.532,28.404,260.014,491.61,231.627,463.224,694.821
bas,axc,2,107321,bas_axc_run2_107321,AY,1600,A,U,white,center,1,1,130,1,1,172,1,1,1,449823,454623,454795,449953,47211,42,1,402.612,402.742,407.412,407.584,28.404,260.014,491.61,231.627,463.224,694.821
bas,axc,2,107321,bas_axc_run2_107321,AX,4000,A,X,white,center,1,2,251,1,1,608,1,2,1,457023,461822,462430,457274,47211,43,1,409.812,410.063,414.611,415.219,28.404,260.014,491.61,231.627,463.224,694.821
bas,axc,2,107321,bas_axc_run2_107321,BY,2800,D,C,white,center,1,1,374,1,1,433,1,1,1,466622,471422,471855,466996,47211,44,1,419.411,419.785,424.211,424.644,28.404,260.014,491.61,231.627,463.224,694.821
bas,axc,2,107321,bas_axc_run2_107321,BY,2800,F,H,white,center,1,1,468,1,1,294,1,1,1,475022,479822,480116,475490,47211,45,1,427.811,428.279,432.611,432.905,28.404,260.014,491.61,231.627,463.224,694.821
bas,axc,2,107321,bas_axc_run2_107321,Ang,4000,A,6,white,center,1,,502,1,1,0,1,,1,483422,488222,0,483924,47211,46,1,436.211,436.713,441.011,-47.211,28.404,260.014,491.61,231.627,463.224,694.821
bas,axc,2,107321,bas_axc_run2_107321,AX,4000,A,X,white,center,1,2,135,1,1,371,0,1,0,493022,497822,498193,493157,47211,47,0,445.811,445.946,450.611,450.982,28.404,260.014,491.61,231.627,463.224,694.821
bas,axc,2,107321,bas_axc_run2_107321,AX,2800,A,X,white,center,1,2,279,1,1,367,1,2,1,502622,507422,507789,502901,47211,48,1,455.411,455.69,460.211,460.578,28.404,260.014,491.61,231.627,463.224,694.821
bas,axc,2,107321,bas_axc_run2_107321,AX,1600,A,X,white,center,1,2,342,1,1,355,1,2,1,541021,545821,546176,541363,47211,49,1,493.81,494.152,498.61,498.965,28.404,260.014,491.61,231.627,463.224,694.821
bas,axc,2,107321,bas_axc_run2_107321,AX,1600,A,X,white,center,1,2,301,1,1,296,1,2,1,548221,553021,553317,548522,47211,50,1,501.01,501.311,505.81,506.106,28.404,260.014,491.61,231.627,463.224,694.821
bas,axc,2,107321,bas_axc_run2_107321,BY,4000,P,T,white,center,1,1,119,1,1,444,1,1,1,555421,560221,560665,555540,47211,51,1,508.21,508.329,513.01,513.454,28.404,260.014,491.61,231.627,463.224,694.821
bas,axc,2,107321,bas_axc_run2_107321,AY,4000,A,P,white,center,1,1,343,1,1,576,1,1,1,565021,569821,570397,565364,47211,52,1,517.81,518.153,522.61,523.186,28.404,260.014,491.61,231.627,463.224,694.821
bas,axc,2,107321,bas_axc_run2_107321,BY,1600,D,U,white,center,1,1,223,1,1,169,1,1,1,574621,579421,579590,574844,47211,53,1,527.41,527.633,532.21,532.379,28.404,260.014,491.61,231.627,463.224,694.821
bas,axc,2,107321,bas_axc_run2_107321,Bng,2800,C,3,white,center,1,,234,1,1,155,0,1,0,581821,586621,586776,582055,47211,54,0,534.61,534.844,539.41,539.565,28.404,260.014,491.61,231.627,463.224,694.821
bas,axc,2,107321,bas_axc_run2_107321,AX,2800,A,X,white,center,1,2,84,1,1,425,1,2,1,590221,595021,595446,590305,47211,55,1,543.01,543.094,547.81,548.235,28.404,260.014,491.61,231.627,463.224,694.821
bas,axc,2,107321,bas_axc_run2_107321,BX,1600,H,X,white,center,1,1,148,1,1,6,1,1,1,598620,603420,603426,598768,47211,56,1,551.409,551.557,556.209,556.215,28.404,260.014,491.61,231.627,463.224,694.821
bas,axc,2,107321,bas_axc_run2_107321,BX,4000,N,X,white,center,1,1,248,1,1,586,1,1,1,605820,610620,611206,606068,47211,57,1,558.609,558.857,563.409,563.995,28.404,260.014,491.61,231.627,463.224,694.821
bas,axc,2,107321,bas_axc_run2_107321,AX,2800,A,X,white,center,1,2,311,1,1,327,1,2,1,615420,620220,620547,615731,47211,58,1,568.209,568.52,573.009,573.336,28.404,260.014,491.61,231.627,463.224,694.821
bas,axc,2,107321,bas_axc_run2_107321,Ang,4000,A,2,white,center,1,,118,1,1,0,1,,1,623820,628620,0,623938,47211,59,1,576.609,576.727,581.409,-47.211,28.404,260.014,491.61,231.627,463.224,694.821
bas,axc,2,107321,bas_axc_run2_107321,Bng,2800,P,2,white,center,1,,251,1,1,0,1,,1,633420,638220,0,633671,47211,60,1,586.209,586.46,591.009,-47.211,28.404,260.014,491.61,231.627,463.224,694.821
bas,axc,2,107321,bas_axc_run2_107321,BY,4000,U,T,white,center,1,1,238,1,1,529,1,1,1,641820,646620,647149,642058,47211,61,1,594.609,594.847,599.409,599.938,28.404,260.014,491.61,231.627,463.224,694.821
bas,axc,2,107321,bas_axc_run2_107321,AX,1600,A,X,white,center,1,2,327,1,1,458,1,2,1,651420,656220,656678,651747,47211,62,1,604.209,604.536,609.009,609.467,28.404,260.014,491.61,231.627,463.224,694.821
bas,axc,2,107321,bas_axc_run2_107321,BY,1600,H,C,white,center,1,1,142,1,1,180,1,1,1,658620,663420,663600,658762,47211,63,1,611.409,611.551,616.209,616.389,28.404,260.014,491.61,231.627,463.224,694.821
bas,axc,2,107321,bas_axc_run2_107321,BY,4000,U,F,white,center,1,1,220,1,1,163,1,1,1,665820,670619,670782,666040,47211,64,1,618.609,618.829,623.408,623.571,28.404,260.014,491.61,231.627,463.224,694.821
bas,axc,2,107321,bas_axc_run2_107321,AX,1600,A,X,white,center,1,2,258,1,1,306,1,2,1,675419,680219,680525,675677,47211,65,1,628.208,628.466,633.008,633.314,28.404,260.014,491.61,231.627,463.224,694.821
bas,axc,2,107321,bas_axc_run2_107321,BY,4000,M,N,white,center,1,1,260,1,1,486,1,1,1,682619,687419,687905,682879,47211,66,1,635.408,635.668,640.208,640.694,28.404,260.014,491.61,231.627,463.224,694.821
bas,axc,2,107321,bas_axc_run2_107321,AX,2800,A,X,white,center,1,2,258,1,1,295,1,2,1,692219,697019,697314,692477,47211,67,1,645.008,645.266,649.808,650.103,28.404,260.014,491.61,231.627,463.224,694.821
bas,axc,2,107321,bas_axc_run2_107321,BY,2800,F,D,white,center,1,1,213,1,1,270,1,1,1,700619,705419,705689,700832,47211,68,1,653.408,653.621,658.208,658.478,28.404,260.014,491.61,231.627,463.224,694.821
bas,axc,2,107321,bas_axc_run2_107321,AY,2800,A,P,white,center,1,1,197,1,1,179,1,1,1,709019,713819,713998,709216,47211,69,1,661.808,662.005,666.608,666.787,28.404,260.014,491.61,231.627,463.224,694.821
bas,axc,2,107321,bas_axc_run2_107321,Ang,2800,A,4,white,center,1,,84,1,1,0,1,,1,717419,722219,0,717503,47211,70,1,670.208,670.292,675.008,-47.211,28.404,260.014,491.61,231.627,463.224,694.821
bas,axc,2,107321,bas_axc_run2_107321,AX,1600,A,X,white,center,1,2,320,1,1,279,1,2,1,725819,730619,730898,726139,47211,71,1,678.608,678.928,683.408,683.687,28.404,260.014,491.61,231.627,463.224,694.821
bas,axc,2,107321,bas_axc_run2_107321,BY,4000,P,T,white,center,1,1,177,1,1,196,1,1,1,733019,737818,738014,733196,47211,72,1,685.808,685.985,690.607,690.803,28.404,260.014,491.61,231.627,463.224,694.821
bas,axc,1,115825,bas_axc_run1_115825,BY,4000,D,T,white,center,1,1,773,1,1,710,1,1,1,151075,155874,156584,151848,120450,1,1,30.625,31.398,35.424,36.134,28.425,260.022,491.619,231.627,463.223,694.82
bas,axc,1,115825,bas_axc_run1_115825,BY,2800,F,C,white,center,1,1,310,1,1,332,1,1,1,160674,165473,165805,160984,120450,2,1,40.224,40.534,45.023,45.355,28.425,260.022,491.619,231.627,463.223,694.82
bas,axc,1,115825,bas_axc_run1_115825,AX,4000,A,X,white,center,1,2,424,1,1,372,1,2,1,169072,173871,174243,169496,120450,3,1,48.622,49.046,53.421,53.793,28.425,260.022,491.619,231.627,463.223,694.82
bas,axc,1,115825,bas_axc_run1_115825,BX,1600,M,X,white,center,1,1,529,1,1,495,0,2,0,178671,183470,183965,179200,120450,4,0,58.221,58.75,63.02,63.515,28.425,260.022,491.619,231.627,463.223,694.82
bas,axc,1,115825,bas_axc_run1_115825,AX,4000,A,X,white,center,1,2,429,1,1,323,1,2,1,185870,190669,190992,186299,120450,5,1,65.42,65.849,70.219,70.542,28.425,260.022,491.619,231.627,463.223,694.82
bas,axc,1,115825,bas_axc_run1_115825,AY,2800,A,H,white,center,1,1,341,1,1,443,1,1,1,195468,200267,200710,195809,120450,6,1,75.018,75.359,79.817,80.26,28.425,260.022,491.619,231.627,463.223,694.82
bas,axc,1,115825,bas_axc_run1_115825,BY,1600,C,D,white,center,1,1,521,1,1,442,1,1,1,203867,208666,209108,204388,120450,7,1,83.417,83.938,88.216,88.658,28.425,260.022,491.619,231.627,463.223,694.82
bas,axc,1,115825,bas_axc_run1_115825,BY,1600,U,D,white,center,1,1,363,1,1,331,1,1,1,211066,215865,216196,211429,120450,8,1,90.616,90.979,95.415,95.746,28.425,260.022,491.619,231.627,463.223,694.82
bas,axc,1,115825,bas_axc_run1_115825,Ang,4000,A,1,white,center,1,,446,1,1,438,0,1,0,218264,223064,223502,218710,120450,9,0,97.814,98.26,102.614,103.052,28.425,260.022,491.619,231.627,463.223,694.82
bas,axc,1,115825,bas_axc_run1_115825,AX,1600,A,X,white,center,1,2,293,1,1,358,1,2,1,227863,232662,233020,228156,120450,10,1,107.413,107.706,112.212,112.57,28.425,260.022,491.619,231.627,463.223,694.82
bas,axc,1,115825,bas_axc_run1_115825,Bng,2800,C,6,white,center,1,,305,1,1,423,0,2,0,235062,239861,240284,235367,120450,11,0,114.612,114.917,119.411,119.834,28.425,260.022,491.619,231.627,463.223,694.82
bas,axc,1,115825,bas_axc_run1_115825,Ang,2800,A,3,white,center,1,,340,1,1,0,1,,1,243477,248276,0,243817,120450,12,1,123.027,123.367,127.826,-120.45,28.425,260.022,491.619,231.627,463.223,694.82
bas,axc,1,115825,bas_axc_run1_115825,AY,2800,A,D,white,center,1,1,309,1,1,505,1,1,1,251876,256675,257180,252185,120450,13,1,131.426,131.735,136.225,136.73,28.425,260.022,491.619,231.627,463.223,694.82
bas,axc,1,115825,bas_axc_run1_115825,AX,4000,A,X,white,center,1,2,318,1,1,333,1,2,1,260274,265074,265407,260592,120450,14,1,139.824,140.142,144.624,144.957,28.425,260.022,491.619,231.627,463.223,694.82
bas,axc,1,115825,bas_axc_run1_115825,AX,1600,A,X,white,center,1,2,304,1,1,323,1,2,1,269873,274672,274995,270177,120450,15,1,149.423,149.727,154.222,154.545,28.425,260.022,491.619,231.627,463.223,694.82
bas,axc,1,115825,bas_axc_run1_115825,AX,1600,A,X,white,center,1,2,337,1,1,333,1,2,1,277072,281871,282204,277409,120450,16,1,156.622,156.959,161.421,161.754,28.425,260.022,491.619,231.627,463.223,694.82
bas,axc,1,115825,bas_axc_run1_115825,AX,4000,A,X,white,center,1,2,339,1,1,466,1,2,1,284271,289070,289536,284610,120450,17,1,163.821,164.16,168.62,169.086,28.425,260.022,491.619,231.627,463.223,694.82
bas,axc,1,115825,bas_axc_run1_115825,BY,1600,N,P,white,center,1,1,448,1,1,434,1,1,1,293869,298668,299102,294317,120450,18,1,173.419,173.867,178.218,178.652,28.425,260.022,491.619,231.627,463.223,694.82
bas,axc,1,115825,bas_axc_run1_115825,Bng,4000,N,3,white,center,1,,488,1,1,418,0,1,0,301068,305867,306285,301556,120450,19,0,180.618,181.106,185.417,185.835,28.425,260.022,491.619,231.627,463.223,694.82
bas,axc,1,115825,bas_axc_run1_115825,BY,1600,D,N,white,center,1,1,377,1,1,456,1,1,1,310666,315466,315922,311043,120450,20,1,190.216,190.593,195.016,195.472,28.425,260.022,491.619,231.627,463.223,694.82
bas,axc,1,115825,bas_axc_run1_115825,AX,2800,A,X,white,center,1,2,338,1,1,266,1,2,1,317865,322664,322930,318203,120450,21,1,197.415,197.753,202.214,202.48,28.425,260.022,491.619,231.627,463.223,694.82
bas,axc,1,115825,bas_axc_run1_115825,BY,2800,M,F,white,center,1,1,491,1,1,454,1,1,1,326264,331063,331517,326755,120450,22,1,205.814,206.305,210.613,211.067,28.425,260.022,491.619,231.627,463.223,694.82
bas,axc,1,115825,bas_axc_run1_115825,BY,4000,P,H,white,center,1,1,347,1,1,271,1,1,1,334663,339462,339733,335010,120450,23,1,214.213,214.56,219.012,219.283,28.425,260.022,491.619,231.627,463.223,694.82
bas,axc,1,115825,bas_axc_run1_115825,BX,2800,U,X,white,center,1,1,323,1,1,376,1,1,1,344261,349077,349453,344584,120450,24,1,223.811,224.134,228.627,229.003,28.425,260.022,491.619,231.627,463.223,694.82
bas,axc,1,115825,bas_axc_run1_115825,Bng,1600,F,5,white,center,1,,334,1,1,0,1,,1,382672,387471,0,383006,120450,25,1,262.222,262.556,267.021,-120.45,28.425,260.022,491.619,231.627,463.223,694.82
bas,axc,1,115825,bas_axc_run1_115825,AX,1600,A,X,white,center,1,2,221,1,1,357,1,2,1,389871,394670,395027,390092,120450,26,1,269.421,269.642,274.22,274.577,28.425,260.022,491.619,231.627,463.223,694.82
bas,axc,1,115825,bas_axc_run1_115825,AX,4000,A,X,white,center,1,2,300,1,1,265,1,2,1,397069,401869,402134,397369,120450,27,1,276.619,276.919,281.419,281.684,28.425,260.022,491.619,231.627,463.223,694.82
bas,axc,1,115825,bas_axc_run1_115825,AY,4000,A,N,white,center,1,1,348,1,1,362,1,1,1,406668,411467,411829,407016,120450,28,1,286.218,286.566,291.017,291.379,28.425,260.022,491.619,231.627,463.223,694.82
bas,axc,1,115825,bas_axc_run1_115825,BY,2800,H,U,white,center,1,1,430,1,1,333,1,1,1,416266,421066,421399,416696,120450,29,1,295.816,296.246,300.616,300.949,28.425,260.022,491.619,231.627,463.223,694.82
bas,axc,1,115825,bas_axc_run1_115825,Ang,4000,A,5,white,center,1,,316,1,1,431,0,1,0,424665,429464,429895,424981,120450,30,0,304.215,304.531,309.014,309.445,28.425,260.022,491.619,231.627,463.223,694.82
bas,axc,1,115825,bas_axc_run1_115825,AX,2800,A,X,white,center,1,2,306,1,1,283,1,2,1,434263,439063,439346,434569,120450,31,1,313.813,314.119,318.613,318.896,28.425,260.022,491.619,231.627,463.223,694.82
bas,axc,1,115825,bas_axc_run1_115825,BY,2800,P,M,white,center,1,1,459,1,1,376,1,1,1,442662,447461,447837,443121,120450,32,1,322.212,322.671,327.011,327.387,28.425,260.022,491.619,231.627,463.223,694.82
bas,axc,1,115825,bas_axc_run1_115825,AX,2800,A,X,white,center,1,2,345,1,1,332,0,1,0,451061,455877,456209,451406,120450,33,0,330.611,330.956,335.427,335.759,28.425,260.022,491.619,231.627,463.223,694.82
bas,axc,1,115825,bas_axc_run1_115825,BY,1600,N,U,white,center,1,1,280,1,1,295,1,1,1,459476,464275,464570,459756,120450,34,1,339.026,339.306,343.825,344.12,28.425,260.022,491.619,231.627,463.223,694.82
bas,axc,1,115825,bas_axc_run1_115825,Bng,1600,T,9,white,center,1,,287,1,1,0,1,,1,466675,471474,0,466962,120450,35,1,346.225,346.512,351.024,-120.45,28.425,260.022,491.619,231.627,463.223,694.82
bas,axc,1,115825,bas_axc_run1_115825,BX,4000,F,X,white,center,1,1,300,1,1,453,0,2,0,473874,478673,479126,474174,120450,36,0,353.424,353.724,358.223,358.676,28.425,260.022,491.619,231.627,463.223,694.82
bas,axc,1,115825,bas_axc_run1_115825,AX,1600,A,X,white,center,1,2,336,1,1,291,1,2,1,483472,488272,488563,483808,120450,37,1,363.022,363.358,367.822,368.113,28.425,260.022,491.619,231.627,463.223,694.82
bas,axc,1,115825,bas_axc_run1_115825,BY,2800,H,T,white,center,1,1,398,1,1,444,1,1,1,490671,495470,495914,491069,120450,38,1,370.221,370.619,375.02,375.464,28.425,260.022,491.619,231.627,463.223,694.82
bas,axc,1,115825,bas_axc_run1_115825,BX,2800,P,X,white,center,1,1,456,1,1,345,1,1,1,499070,503869,504214,499526,120450,39,1,378.62,379.076,383.419,383.764,28.425,260.022,491.619,231.627,463.223,694.82
bas,axc,1,115825,bas_axc_run1_115825,BY,1600,F,M,white,center,1,1,308,1,1,328,1,1,1,507469,512268,512596,507777,120450,40,1,387.019,387.327,391.818,392.146,28.425,260.022,491.619,231.627,463.223,694.82
bas,axc,1,115825,bas_axc_run1_115825,AX,1600,A,X,white,center,1,2,376,1,1,254,1,2,1,514667,519467,519721,515043,120450,41,1,394.217,394.593,399.017,399.271,28.425,260.022,491.619,231.627,463.223,694.82
bas,axc,1,115825,bas_axc_run1_115825,AX,2800,A,X,white,center,1,2,312,1,1,274,1,2,1,521866,526666,526940,522178,120450,42,1,401.416,401.728,406.216,406.49,28.425,260.022,491.619,231.627,463.223,694.82
bas,axc,1,115825,bas_axc_run1_115825,AX,1600,A,X,white,center,1,2,246,1,1,266,1,2,1,530265,535064,535330,530511,120450,43,1,409.815,410.061,414.614,414.88,28.425,260.022,491.619,231.627,463.223,694.82
bas,axc,1,115825,bas_axc_run1_115825,BY,2800,T,M,white,center,1,1,224,1,1,326,1,1,1,537464,542263,542589,537688,120450,44,1,417.014,417.238,421.813,422.139,28.425,260.022,491.619,231.627,463.223,694.82
bas,axc,1,115825,bas_axc_run1_115825,BY,4000,T,N,white,center,1,1,343,1,1,299,1,1,1,545862,550662,550961,546205,120450,45,1,425.412,425.755,430.212,430.511,28.425,260.022,491.619,231.627,463.223,694.82
bas,axc,1,115825,bas_axc_run1_115825,AY,4000,A,T,white,center,1,1,292,1,1,387,1,1,1,555461,560277,560664,555753,120450,46,1,435.011,435.303,439.827,440.214,28.425,260.022,491.619,231.627,463.223,694.82
bas,axc,1,115825,bas_axc_run1_115825,Ang,4000,A,7,white,center,1,,249,1,1,392,0,1,0,565076,569875,570267,565325,120450,47,0,444.626,444.875,449.425,449.817,28.425,260.022,491.619,231.627,463.223,694.82
bas,axc,1,115825,bas_axc_run1_115825,BY,4000,U,P,white,center,1,1,346,1,1,362,1,1,1,574675,579474,579836,575021,120450,48,1,454.225,454.571,459.024,459.386,28.425,260.022,491.619,231.627,463.223,694.82
bas,axc,1,115825,bas_axc_run1_115825,BY,1600,M,P,white,center,1,1,229,1,1,324,0,2,0,614268,619068,619392,614497,120450,49,0,493.818,494.047,498.618,498.942,28.425,260.022,491.619,231.627,463.223,694.82
bas,axc,1,115825,bas_axc_run1_115825,AX,1600,A,X,white,center,1,2,244,1,1,361,1,2,1,621467,626266,626627,621711,120450,50,1,501.017,501.261,505.816,506.177,28.425,260.022,491.619,231.627,463.223,694.82
bas,axc,1,115825,bas_axc_run1_115825,BY,2800,C,M,white,center,1,1,314,1,1,470,1,1,1,628666,633465,633935,628980,120450,51,1,508.216,508.53,513.015,513.485,28.425,260.022,491.619,231.627,463.223,694.82
bas,axc,1,115825,bas_axc_run1_115825,AX,4000,A,X,white,center,1,2,292,1,1,239,1,2,1,637065,641864,642103,637357,120450,52,1,516.615,516.907,521.414,521.653,28.425,260.022,491.619,231.627,463.223,694.82
bas,axc,1,115825,bas_axc_run1_115825,AX,1600,A,X,white,center,1,2,268,1,1,252,1,2,1,646663,651462,651714,646931,120450,53,1,526.213,526.481,531.012,531.264,28.425,260.022,491.619,231.627,463.223,694.82
bas,axc,1,115825,bas_axc_run1_115825,Ang,2800,A,9,white,center,1,,251,1,1,0,1,,1,653862,658661,0,654113,120450,54,1,533.412,533.663,538.211,-120.45,28.425,260.022,491.619,231.627,463.223,694.82
bas,axc,1,115825,bas_axc_run1_115825,BY,2800,C,M,white,center,1,1,491,0,2,416,1,1,0,662261,667077,667493,662752,120450,55,0,541.811,542.302,546.627,547.043,28.425,260.022,491.619,231.627,463.223,694.82
bas,axc,1,115825,bas_axc_run1_115825,AY,1600,A,T,white,center,1,1,462,1,1,297,0,2,0,670676,675475,675772,671138,120450,56,0,550.226,550.688,555.025,555.322,28.425,260.022,491.619,231.627,463.223,694.82
bas,axc,1,115825,bas_axc_run1_115825,Ang,4000,A,3,white,center,1,,341,1,1,0,1,,1,677875,682674,0,678216,120450,57,1,557.425,557.766,562.224,-120.45,28.425,260.022,491.619,231.627,463.223,694.82
bas,axc,1,115825,bas_axc_run1_115825,BY,2800,F,C,white,center,1,1,467,1,1,341,1,1,1,687473,692273,692614,687940,120450,58,1,567.023,567.49,571.823,572.164,28.425,260.022,491.619,231.627,463.223,694.82
bas,axc,1,115825,bas_axc_run1_115825,AX,4000,A,X,white,center,1,2,255,1,1,414,0,1,0,695872,700671,701085,696127,120450,59,0,575.422,575.677,580.221,580.635,28.425,260.022,491.619,231.627,463.223,694.82
bas,axc,1,115825,bas_axc_run1_115825,AY,4000,A,D,white,center,1,1,250,1,1,405,1,1,1,705470,710270,710675,705720,120450,60,1,585.02,585.27,589.82,590.225,28.425,260.022,491.619,231.627,463.223,694.82
bas,axc,1,115825,bas_axc_run1_115825,BY,4000,F,M,white,center,1,1,384,1,1,472,1,1,1,715069,719868,720340,715453,120450,61,1,594.619,595.003,599.418,599.89,28.425,260.022,491.619,231.627,463.223,694.82
bas,axc,1,115825,bas_axc_run1_115825,Bng,4000,U,5,white,center,1,,313,1,1,306,0,1,0,724667,729467,729773,724980,120450,62,0,604.217,604.53,609.017,609.323,28.425,260.022,491.619,231.627,463.223,694.82
bas,axc,1,115825,bas_axc_run1_115825,AX,2800,A,X,white,center,1,2,279,1,1,330,1,2,1,734266,739065,739395,734545,120450,63,1,613.816,614.095,618.615,618.945,28.425,260.022,491.619,231.627,463.223,694.82
bas,axc,1,115825,bas_axc_run1_115825,BY,2800,H,U,white,center,1,1,243,1,1,367,1,1,1,742665,747464,747831,742908,120450,64,1,622.215,622.458,627.014,627.381,28.425,260.022,491.619,231.627,463.223,694.82
bas,axc,1,115825,bas_axc_run1_115825,BY,1600,M,P,white,center,1,1,342,1,1,327,1,1,1,751063,755863,756190,751405,120450,65,1,630.613,630.955,635.413,635.74,28.425,260.022,491.619,231.627,463.223,694.82
bas,axc,1,115825,bas_axc_run1_115825,AX,1600,A,X,white,center,1,2,360,1,1,357,1,2,1,758262,763061,763418,758622,120450,66,1,637.812,638.172,642.611,642.968,28.425,260.022,491.619,231.627,463.223,694.82
bas,axc,1,115825,bas_axc_run1_115825,BX,2800,C,X,white,center,1,1,229,1,1,360,1,1,1,765461,770277,770637,765690,120450,67,1,645.011,645.24,649.827,650.187,28.425,260.022,491.619,231.627,463.223,694.82
bas,axc,1,115825,bas_axc_run1_115825,BY,4000,M,F,white,center,1,1,382,1,1,405,0,2,0,773876,778676,779081,774258,120450,68,0,653.426,653.808,658.226,658.631,28.425,260.022,491.619,231.627,463.223,694.82
bas,axc,1,115825,bas_axc_run1_115825,AX,2800,A,X,white,center,1,2,288,1,1,282,1,2,1,783475,788274,788556,783763,120450,69,1,663.025,663.313,667.824,668.106,28.425,260.022,491.619,231.627,463.223,694.82
bas,axc,1,115825,bas_axc_run1_115825,BX,1600,U,X,white,center,1,1,333,1,1,498,1,1,1,791873,796673,797171,792206,120450,70,1,671.423,671.756,676.223,676.721,28.425,260.022,491.619,231.627,463.223,694.82
bas,axc,1,115825,bas_axc_run1_115825,Bng,1600,H,5,white,center,1,,331,1,1,0,1,,1,799072,803872,0,799403,120450,71,1,678.622,678.953,683.422,-120.45,28.425,260.022,491.619,231.627,463.223,694.82
bas,axc,1,115825,bas_axc_run1_115825,AX,4000,A,X,white,center,1,2,207,1,1,273,1,2,1,806271,811070,811343,806478,120450,72,1,685.821,686.028,690.62,690.893,28.425,260.022,491.619,231.627,463.223,694.82
bas,axc,2,115825,bas_axc_run2_115825,BY,1600,U,F,white,center,1,1,440,1,1,335,0,2,0,74138,78937,79272,74578,43514,1,0,30.624,31.064,35.423,35.758,28.425,260.021,491.618,231.626,463.222,694.836
bas,axc,2,115825,bas_axc_run2_115825,AX,1600,A,X,white,center,1,2,214,1,1,276,1,2,1,81337,86136,86412,81551,43514,2,1,37.823,38.037,42.622,42.898,28.425,260.021,491.618,231.626,463.222,694.836
bas,axc,2,115825,bas_axc_run2_115825,AY,4000,A,C,white,center,1,1,286,1,1,507,1,1,1,88536,93335,93842,88822,43514,3,1,45.022,45.308,49.821,50.328,28.425,260.021,491.618,231.626,463.222,694.836
bas,axc,2,115825,bas_axc_run2_115825,Ang,2800,A,2,white,center,1,,250,1,1,384,0,1,0,98134,102934,103318,98384,43514,4,0,54.62,54.87,59.42,59.804,28.425,260.021,491.618,231.626,463.222,694.836
bas,axc,2,115825,bas_axc_run2_115825,BY,4000,F,H,white,center,1,1,253,1,1,340,1,1,1,106533,111332,111672,106786,43514,5,1,63.019,63.272,67.818,68.158,28.425,260.021,491.618,231.626,463.222,694.836
bas,axc,2,115825,bas_axc_run2_115825,BX,4000,N,X,white,center,1,1,244,1,1,341,1,1,1,116132,120931,121272,116376,43514,6,1,72.618,72.862,77.417,77.758,28.425,260.021,491.618,231.626,463.222,694.836
bas,axc,2,115825,bas_axc_run2_115825,BY,1600,H,F,white,center,1,1,222,1,1,321,1,1,1,125730,130529,130850,125952,43514,7,1,82.216,82.438,87.015,87.336,28.425,260.021,491.618,231.626,463.222,694.836
bas,axc,2,115825,bas_axc_run2_115825,Bng,2800,D,1,white,center,1,,305,1,1,337,0,1,0,132929,137728,138065,133234,43514,8,0,89.415,89.72,94.214,94.551,28.425,260.021,491.618,231.626,463.222,694.836
bas,axc,2,115825,bas_axc_run2_115825,BY,1600,F,D,white,center,1,1,276,1,1,296,1,1,1,141328,146127,146423,141604,43514,9,1,97.814,98.09,102.613,102.909,28.425,260.021,491.618,231.626,463.222,694.836
bas,axc,2,115825,bas_axc_run2_115825,AX,4000,A,X,white,center,1,2,249,1,1,269,1,2,1,148526,153326,153595,148775,43514,10,1,105.012,105.261,109.812,110.081,28.425,260.021,491.618,231.626,463.222,694.836
bas,axc,2,115825,bas_axc_run2_115825,BY,2800,H,C,white,center,1,1,312,1,1,325,1,1,1,158142,162941,163266,158454,43514,11,1,114.628,114.94,119.427,119.752,28.425,260.021,491.618,231.626,463.222,694.836
bas,axc,2,115825,bas_axc_run2_115825,AX,2800,A,X,white,center,1,2,397,1,1,372,0,1,0,166540,171339,171711,166937,43514,12,0,123.026,123.423,127.825,128.197,28.425,260.021,491.618,231.626,463.222,694.836
bas,axc,2,115825,bas_axc_run2_115825,AX,2800,A,X,white,center,1,2,217,1,1,392,1,2,1,174939,179738,180130,175156,43514,13,1,131.425,131.642,136.224,136.616,28.425,260.021,491.618,231.626,463.222,694.836
bas,axc,2,115825,bas_axc_run2_115825,BY,2800,N,D,white,center,1,1,352,1,1,449,1,1,1,183338,188137,188586,183690,43514,14,1,139.824,140.176,144.623,145.072,28.425,260.021,491.618,231.626,463.222,694.836
bas,axc,2,115825,bas_axc_run2_115825,BY,1600,U,T,white,center,1,1,251,1,1,367,1,1,1,191736,196535,196902,191987,43514,15,1,148.222,148.473,153.021,153.388,28.425,260.021,491.618,231.626,463.222,694.836
bas,axc,2,115825,bas_axc_run2_115825,Ang,4000,A,4,white,center,1,,313,1,1,427,0,1,0,198935,203734,204161,199248,43514,16,0,155.421,155.734,160.22,160.647,28.425,260.021,491.618,231.626,463.222,694.836
bas,axc,2,115825,bas_axc_run2_115825,Bng,2800,M,1,white,center,1,,362,1,1,0,1,,1,208534,213333,0,208896,43514,17,1,165.02,165.382,169.819,-43.514,28.425,260.021,491.618,231.626,463.222,694.836
bas,axc,2,115825,bas_axc_run2_115825,AY,1600,A,F,white,center,1,1,265,1,1,369,1,1,1,216932,221731,222100,217197,43514,18,1,173.418,173.683,178.217,178.586,28.425,260.021,491.618,231.626,463.222,694.836
bas,axc,2,115825,bas_axc_run2_115825,AX,4000,A,X,white,center,1,2,299,1,1,332,1,2,1,224131,228930,229262,224430,43514,19,1,180.617,180.916,185.416,185.748,28.425,260.021,491.618,231.626,463.222,694.836
bas,axc,2,115825,bas_axc_run2_115825,BY,4000,N,H,white,center,1,1,327,1,1,360,1,1,1,233730,238529,238889,234057,43514,20,1,190.216,190.543,195.015,195.375,28.425,260.021,491.618,231.626,463.222,694.836
bas,axc,2,115825,bas_axc_run2_115825,AX,2800,A,X,white,center,1,2,279,1,1,276,1,2,1,243328,248127,248403,243607,43514,21,1,199.814,200.093,204.613,204.889,28.425,260.021,491.618,231.626,463.222,694.836
bas,axc,2,115825,bas_axc_run2_115825,AX,1600,A,X,white,center,1,2,315,1,1,349,0,1,0,251727,256526,256875,252042,43514,22,0,208.213,208.528,213.012,213.361,28.425,260.021,491.618,231.626,463.222,694.836
bas,axc,2,115825,bas_axc_run2_115825,BX,1600,T,X,white,center,1,1,217,1,1,531,0,2,0,258926,263741,264272,259143,43514,23,0,215.412,215.629,220.227,220.758,28.425,260.021,491.618,231.626,463.222,694.836
bas,axc,2,115825,bas_axc_run2_115825,AX,4000,A,X,white,center,1,2,281,1,1,266,1,2,1,266141,270940,271206,266422,43514,24,1,222.627,222.908,227.426,227.692,28.425,260.021,491.618,231.626,463.222,694.836
bas,axc,2,115825,bas_axc_run2_115825,AX,4000,A,X,white,center,1,2,315,1,1,286,1,2,1,305735,310534,310820,306050,43514,25,1,262.221,262.536,267.02,267.306,28.425,260.021,491.618,231.626,463.222,694.836
bas,axc,2,115825,bas_axc_run2_115825,BY,4000,T,P,white,center,1,1,423,1,1,268,1,1,1,315333,320133,320401,315756,43514,26,1,271.819,272.242,276.619,276.887,28.425,260.021,491.618,231.626,463.222,694.836
bas,axc,2,115825,bas_axc_run2_115825,AY,1600,A,P,white,center,1,1,278,1,1,406,1,1,1,324932,329731,330137,325210,43514,27,1,281.418,281.696,286.217,286.623,28.425,260.021,491.618,231.626,463.222,694.836
bas,axc,2,115825,bas_axc_run2_115825,AY,1600,A,M,white,center,1,1,276,1,1,340,1,1,1,332131,336930,337270,332407,43514,28,1,288.617,288.893,293.416,293.756,28.425,260.021,491.618,231.626,463.222,694.836
bas,axc,2,115825,bas_axc_run2_115825,BY,1600,D,C,white,center,1,1,360,1,1,326,1,1,1,339330,344129,344455,339690,43514,29,1,295.816,296.176,300.615,300.941,28.425,260.021,491.618,231.626,463.222,694.836
bas,axc,2,115825,bas_axc_run2_115825,AX,4000,A,X,white,center,1,2,333,1,1,298,1,2,1,346528,351328,351626,346861,43514,30,1,303.014,303.347,307.814,308.112,28.425,260.021,491.618,231.626,463.222,694.836
bas,axc,2,115825,bas_axc_run2_115825,BY,2800,P,T,white,center,1,1,215,1,1,302,1,1,1,356127,360926,361228,356342,43514,31,1,312.613,312.828,317.412,317.714,28.425,260.021,491.618,231.626,463.222,694.836
bas,axc,2,115825,bas_axc_run2_115825,BY,2800,D,U,white,center,1,1,284,1,1,312,1,1,1,364542,369341,369653,364826,43514,32,1,321.028,321.312,325.827,326.139,28.425,260.021,491.618,231.626,463.222,694.836
bas,axc,2,115825,bas_axc_run2_115825,Bng,1600,F,3,white,center,1,,293,1,1,0,1,,1,372941,377740,0,373234,43514,33,1,329.427,329.72,334.226,-43.514,28.425,260.021,491.618,231.626,463.222,694.836
bas,axc,2,115825,bas_axc_run2_115825,Bng,2800,U,2,white,center,1,,637,1,1,0,1,,1,380140,384939,0,380777,43514,34,1,336.626,337.263,341.425,-43.514,28.425,260.021,491.618,231.626,463.222,694.836
bas,axc,2,115825,bas_axc_run2_115825,BY,2800,T,H,white,center,1,1,283,1,1,343,1,1,1,388538,393338,393681,388821,43514,35,1,345.024,345.307,349.824,350.167,28.425,260.021,491.618,231.626,463.222,694.836
bas,axc,2,115825,bas_axc_run2_115825,AX,4000,A,X,white,center,1,2,242,1,1,329,1,2,1,396937,401736,402065,397179,43514,36,1,353.423,353.665,358.222,358.551,28.425,260.021,491.618,231.626,463.222,694.836
bas,axc,2,115825,bas_axc_run2_115825,BY,4000,M,N,white,center,1,1,263,1,1,284,1,1,1,406536,411335,411619,406799,43514,37,1,363.022,363.285,367.821,368.105,28.425,260.021,491.618,231.626,463.222,694.836
bas,axc,2,115825,bas_axc_run2_115825,BX,4000,D,X,white,center,1,1,412,1,1,331,1,1,1,416134,420933,421264,416546,43514,38,1,372.62,373.032,377.419,377.75,28.425,260.021,491.618,231.626,463.222,694.836
bas,axc,2,115825,bas_axc_run2_115825,AX,1600,A,X,white,center,1,2,212,1,1,316,1,2,1,425732,430532,430848,425944,43514,39,1,382.218,382.43,387.018,387.334,28.425,260.021,491.618,231.626,463.222,694.836
bas,axc,2,115825,bas_axc_run2_115825,BX,4000,H,X,white,center,1,1,310,1,1,316,1,1,1,432931,437731,438047,433241,43514,40,1,389.417,389.727,394.217,394.533,28.425,260.021,491.618,231.626,463.222,694.836
bas,axc,2,115825,bas_axc_run2_115825,Ang,1600,A,8,white,center,1,,272,1,1,0,1,,1,442530,447329,0,442802,43514,41,1,399.016,399.288,403.815,-43.514,28.425,260.021,491.618,231.626,463.222,694.836
bas,axc,2,115825,bas_axc_run2_115825,Ang,4000,A,6,white,center,1,,257,1,1,0,1,,1,449729,454528,0,449986,43514,42,1,406.215,406.472,411.014,-43.514,28.425,260.021,491.618,231.626,463.222,694.836
bas,axc,2,115825,bas_axc_run2_115825,AX,1600,A,X,white,center,1,2,303,1,1,269,1,2,1,459327,464126,464395,459630,43514,43,1,415.813,416.116,420.612,420.881,28.425,260.021,491.618,231.626,463.222,694.836
bas,axc,2,115825,bas_axc_run2_115825,BY,2800,C,N,white,center,1,1,323,1,1,401,1,1,1,466526,471342,471743,466849,43514,44,1,423.012,423.335,427.828,428.229,28.425,260.021,491.618,231.626,463.222,694.836
bas,axc,2,115825,bas_axc_run2_115825,AX,2800,A,X,white,center,1,2,318,1,1,334,1,2,1,474941,479741,480075,475259,43514,45,1,431.427,431.745,436.227,436.561,28.425,260.021,491.618,231.626,463.222,694.836
bas,axc,2,115825,bas_axc_run2_115825,AX,2800,A,X,white,center,1,2,274,1,1,323,1,2,1,483340,488139,488462,483614,43514,46,1,439.826,440.1,444.625,444.948,28.425,260.021,491.618,231.626,463.222,694.836
bas,axc,2,115825,bas_axc_run2_115825,BY,1600,P,C,white,center,1,1,258,1,1,283,1,1,1,491739,496538,496821,491997,43514,47,1,448.225,448.483,453.024,453.307,28.425,260.021,491.618,231.626,463.222,694.836
bas,axc,2,115825,bas_axc_run2_115825,AX,2800,A,X,white,center,1,2,265,1,1,412,1,2,1,498938,503737,504149,499203,43514,48,1,455.424,455.689,460.223,460.635,28.425,260.021,491.618,231.626,463.222,694.836
bas,axc,2,115825,bas_axc_run2_115825,BY,1600,M,U,white,center,1,1,272,1,1,330,0,2,0,537331,542131,542461,537603,43514,49,0,493.817,494.089,498.617,498.947,28.425,260.021,491.618,231.626,463.222,694.836
bas,axc,2,115825,bas_axc_run2_115825,BY,4000,C,F,white,center,1,1,229,1,1,342,1,1,1,544530,549330,549672,544759,43514,50,1,501.016,501.245,505.816,506.158,28.425,260.021,491.618,231.626,463.222,694.836
bas,axc,2,115825,bas_axc_run2_115825,Bng,4000,M,8,white,center,1,,234,1,1,269,0,1,0,554129,558928,559197,554363,43514,51,0,510.615,510.849,515.414,515.683,28.425,260.021,491.618,231.626,463.222,694.836
bas,axc,2,115825,bas_axc_run2_115825,AX,1600,A,X,white,center,1,2,298,1,1,283,1,2,1,563727,568527,568810,564025,43514,52,1,520.213,520.511,525.013,525.296,28.425,260.021,491.618,231.626,463.222,694.836
bas,axc,2,115825,bas_axc_run2_115825,BX,1600,T,X,white,center,1,1,429,1,1,449,0,2,0,570926,575742,576191,571355,43514,53,0,527.412,527.841,532.228,532.677,28.425,260.021,491.618,231.626,463.222,694.836
bas,axc,2,115825,bas_axc_run2_115825,BY,2800,D,U,white,center,1,1,228,1,1,338,1,1,1,578142,582941,583279,578370,43514,54,1,534.628,534.856,539.427,539.765,28.425,260.021,491.618,231.626,463.222,694.836
bas,axc,2,115825,bas_axc_run2_115825,AX,4000,A,X,white,center,1,2,313,1,1,378,1,2,1,586540,591340,591718,586853,43514,55,1,543.026,543.339,547.826,548.204,28.425,260.021,491.618,231.626,463.222,694.836
bas,axc,2,115825,bas_axc_run2_115825,AX,4000,A,X,white,center,1,2,338,1,1,357,1,2,1,596139,600938,601295,596477,43514,56,1,552.625,552.963,557.424,557.781,28.425,260.021,491.618,231.626,463.222,694.836
bas,axc,2,115825,bas_axc_run2_115825,BY,1600,C,N,white,center,1,1,424,1,1,390,1,1,1,605737,610537,610927,606161,43514,57,1,562.223,562.647,567.023,567.413,28.425,260.021,491.618,231.626,463.222,694.836
bas,axc,2,115825,bas_axc_run2_115825,Bng,2800,U,6,white,center,1,,402,1,1,0,1,,1,612936,617735,0,613338,43514,58,1,569.422,569.824,574.221,-43.514,28.425,260.021,491.618,231.626,463.222,694.836
bas,axc,2,115825,bas_axc_run2_115825,BY,2800,H,F,white,center,1,1,411,1,1,419,1,1,1,621335,626134,626553,621746,43514,59,1,577.821,578.232,582.62,583.039,28.425,260.021,491.618,231.626,463.222,694.836
bas,axc,2,115825,bas_axc_run2_115825,Ang,2800,A,4,white,center,1,,354,1,1,259,0,1,0,629733,634533,634792,630087,43514,60,0,586.219,586.573,591.019,591.278,28.425,260.021,491.618,231.626,463.222,694.836
bas,axc,2,115825,bas_axc_run2_115825,BY,1600,D,C,white,center,1,1,242,1,1,308,0,2,0,638132,642931,643239,638374,43514,61,0,594.618,594.86,599.417,599.725,28.425,260.021,491.618,231.626,463.222,694.836
bas,axc,2,115825,bas_axc_run2_115825,Ang,2800,A,6,white,center,1,,197,1,1,0,1,,1,645331,650130,0,645528,43514,62,1,601.817,602.014,606.616,-43.514,28.425,260.021,491.618,231.626,463.222,694.836
bas,axc,2,115825,bas_axc_run2_115825,AY,4000,A,U,white,center,1,1,312,1,1,471,1,1,1,653730,658529,659000,654042,43514,63,1,610.216,610.528,615.015,615.486,28.425,260.021,491.618,231.626,463.222,694.836
bas,axc,2,115825,bas_axc_run2_115825,AX,1600,A,X,white,center,1,2,212,1,1,221,1,2,1,663328,668127,668348,663540,43514,64,1,619.814,620.026,624.613,624.834,28.425,260.021,491.618,231.626,463.222,694.836
bas,axc,2,115825,bas_axc_run2_115825,AX,2800,A,X,white,center,1,2,277,1,1,295,1,2,1,670527,675326,675621,670804,43514,65,1,627.013,627.29,631.812,632.107,28.425,260.021,491.618,231.626,463.222,694.836
bas,axc,2,115825,bas_axc_run2_115825,AX,4000,A,X,white,center,1,2,99,1,1,452,0,1,0,678926,683742,684194,679025,43514,66,0,635.412,635.511,640.228,640.68,28.425,260.021,491.618,231.626,463.222,694.836
bas,axc,2,115825,bas_axc_run2_115825,BY,2800,P,T,white,center,1,1,413,1,1,352,1,1,1,688541,693340,693692,688954,43514,67,1,645.027,645.44,649.826,650.178,28.425,260.021,491.618,231.626,463.222,694.836
bas,axc,2,115825,bas_axc_run2_115825,AX,4000,A,X,white,center,1,2,301,1,1,294,1,2,1,696939,701739,702033,697240,43514,68,1,653.425,653.726,658.225,658.519,28.425,260.021,491.618,231.626,463.222,694.836
bas,axc,2,115825,bas_axc_run2_115825,BX,2800,D,X,white,center,1,1,277,1,1,244,1,1,1,706538,711337,711581,706815,43514,69,1,663.024,663.301,667.823,668.067,28.425,260.021,491.618,231.626,463.222,694.836
bas,axc,2,115825,bas_axc_run2_115825,BY,1600,H,C,white,center,1,1,418,0,2,249,1,1,0,714937,719736,719985,715355,43514,70,0,671.423,671.841,676.222,676.471,28.425,260.021,491.618,231.626,463.222,694.836
bas,axc,2,115825,bas_axc_run2_115825,AX,4000,A,X,white,center,1,2,192,1,1,346,1,2,1,722135,726935,727281,722327,43514,71,1,678.621,678.813,683.421,683.767,28.425,260.021,491.618,231.626,463.222,694.836
bas,axc,2,115825,bas_axc_run2_115825,AY,1600,A,M,white,center,1,1,316,1,1,457,1,1,1,731734,736533,736990,732050,43514,72,1,688.22,688.536,693.019,693.476,28.425,260.021,491.618,231.626,463.222,694.836
bas,axc,1,123117,bas_axc_run1_123117,AX,1600,A,X,white,center,1,2,569,1,1,454,1,2,1,141616,146432,146886,142185,111012,1,1,30.604,31.173,35.42,35.874,28.421,260.017,491.614,231.622,463.218,694.815
bas,axc,1,123117,bas_axc_run1_123117,BY,2800,T,N,white,center,1,1,721,1,1,583,1,1,1,148831,153630,154213,149552,111012,2,1,37.819,38.54,42.618,43.201,28.421,260.017,491.614,231.622,463.218,694.815
bas,axc,1,123117,bas_axc_run1_123117,Bng,2800,N,5,white,center,1,,652,1,1,0,1,,1,157230,162029,0,157882,111012,3,1,46.218,46.87,51.017,-111.012,28.421,260.017,491.614,231.622,463.218,694.815
bas,axc,1,123117,bas_axc_run1_123117,BX,1600,P,X,white,center,1,1,509,1,1,486,1,1,1,165629,170428,170914,166138,111012,4,1,54.617,55.126,59.416,59.902,28.421,260.017,491.614,231.622,463.218,694.815
bas,axc,1,123117,bas_axc_run1_123117,Ang,1600,A,7,white,center,1,,645,1,1,0,1,,1,172827,177627,0,173472,111012,5,1,61.815,62.46,66.615,-111.012,28.421,260.017,491.614,231.622,463.218,694.815
bas,axc,1,123117,bas_axc_run1_123117,AX,2800,A,X,white,center,1,2,696,1,1,730,1,2,1,180026,184825,185555,180722,111012,6,1,69.014,69.71,73.813,74.543,28.421,260.017,491.614,231.622,463.218,694.815
bas,axc,1,123117,bas_axc_run1_123117,AX,1600,A,X,white,center,1,2,588,1,1,1201,1,2,1,188425,193224,194425,189013,111012,7,1,77.413,78.001,82.212,83.413,28.421,260.017,491.614,231.622,463.218,694.815
bas,axc,1,123117,bas_axc_run1_123117,BY,4000,C,M,white,center,1,1,668,1,1,778,1,1,1,195624,200423,201201,196292,111012,8,1,84.612,85.28,89.411,90.189,28.421,260.017,491.614,231.622,463.218,694.815
bas,axc,1,123117,bas_axc_run1_123117,BY,4000,F,C,white,center,1,1,603,1,1,772,1,1,1,205222,210022,210794,205825,111012,9,1,94.21,94.813,99.01,99.782,28.421,260.017,491.614,231.622,463.218,694.815
bas,axc,1,123117,bas_axc_run1_123117,AX,4000,A,X,white,center,1,2,1007,1,1,904,0,1,0,214821,219620,220524,215828,111012,10,0,103.809,104.816,108.608,109.512,28.421,260.017,491.614,231.622,463.218,694.815
bas,axc,1,123117,bas_axc_run1_123117,BY,2800,M,P,white,center,1,1,569,1,1,491,1,1,1,224419,229218,229709,224988,111012,11,1,113.407,113.976,118.206,118.697,28.421,260.017,491.614,231.622,463.218,694.815
bas,axc,1,123117,bas_axc_run1_123117,AY,4000,A,T,white,center,1,1,804,1,1,614,1,1,1,232818,237617,238231,233622,111012,12,1,121.806,122.61,126.605,127.219,28.421,260.017,491.614,231.622,463.218,694.815
bas,axc,1,123117,bas_axc_run1_123117,Ang,4000,A,3,white,center,1,,731,1,1,704,0,1,0,242416,247216,247920,243147,111012,13,0,131.404,132.135,136.204,136.908,28.421,260.017,491.614,231.622,463.218,694.815
bas,axc,1,123117,bas_axc_run1_123117,BY,4000,P,M,white,center,1,1,580,1,1,718,1,1,1,252032,256831,257549,252612,111012,14,1,141.02,141.6,145.819,146.537,28.421,260.017,491.614,231.622,463.218,694.815
bas,axc,1,123117,bas_axc_run1_123117,AX,1600,A,X,white,center,1,2,710,1,1,475,1,2,1,261630,266429,266904,262340,111012,15,1,150.618,151.328,155.417,155.892,28.421,260.017,491.614,231.622,463.218,694.815
bas,axc,1,123117,bas_axc_run1_123117,AY,4000,A,H,white,center,1,1,451,1,1,588,0,2,0,268829,273628,274216,269280,111012,16,0,157.817,158.268,162.616,163.204,28.421,260.017,491.614,231.622,463.218,694.815
bas,axc,1,123117,bas_axc_run1_123117,BX,2800,M,X,white,center,1,1,684,1,1,949,1,1,1,278427,283227,284176,279111,111012,17,1,167.415,168.099,172.215,173.164,28.421,260.017,491.614,231.622,463.218,694.815
bas,axc,1,123117,bas_axc_run1_123117,Bng,2800,D,2,white,center,1,,0,0,,0,1,,0,286826,291625,0,0,111012,18,0,175.814,-111.012,180.613,-111.012,28.421,260.017,491.614,231.622,463.218,694.815
bas,axc,1,123117,bas_axc_run1_123117,BY,2800,D,N,white,center,1,1,554,1,1,916,1,1,1,295225,300024,300940,295779,111012,19,1,184.213,184.767,189.012,189.928,28.421,260.017,491.614,231.622,463.218,694.815
bas,axc,1,123117,bas_axc_run1_123117,BY,2800,N,U,white,center,1,1,628,1,1,1109,1,1,1,303623,308423,309532,304251,111012,20,1,192.611,193.239,197.411,198.52,28.421,260.017,491.614,231.622,463.218,694.815
bas,axc,1,123117,bas_axc_run1_123117,AX,1600,A,X,white,center,1,2,557,1,1,760,1,2,1,312022,316821,317581,312579,111012,21,1,201.01,201.567,205.809,206.569,28.421,260.017,491.614,231.622,463.218,694.815
bas,axc,1,123117,bas_axc_run1_123117,BY,1600,F,M,white,center,1,1,0,0,,588,1,1,0,319221,324020,324608,0,111012,22,0,208.209,-111.012,213.008,213.596,28.421,260.017,491.614,231.622,463.218,694.815
bas,axc,1,123117,bas_axc_run1_123117,AX,4000,A,X,white,center,1,2,532,1,1,1007,1,2,1,326420,331219,332226,326952,111012,23,1,215.408,215.94,220.207,221.214,28.421,260.017,491.614,231.622,463.218,694.815
bas,axc,1,123117,bas_axc_run1_123117,AX,1600,A,X,white,center,1,2,485,1,1,357,1,2,1,336018,340817,341174,336503,111012,24,1,225.006,225.491,229.805,230.162,28.421,260.017,491.614,231.622,463.218,694.815
bas,axc,1,123117,bas_axc_run1_123117,AX,1600,A,X,white,center,1,2,0,0,,693,0,1,0,373229,378028,378721,0,111012,25,0,262.217,-111.012,267.016,267.709,28.421,260.017,491.614,231.622,463.218,694.815
bas,axc,1,123117,bas_axc_run1_123117,BY,2800,N,P,white,center,1,1,612,1,1,1021,1,1,1,380428,385227,386248,381040,111012,26,1,269.416,270.028,274.215,275.236,28.421,260.017,491.614,231.622,463.218,694.815
bas,axc,1,123117,bas_axc_run1_123117,AX,4000,A,X,white,center,1,2,525,1,1,457,1,2,1,388826,393626,394083,389351,111012,27,1,277.814,278.339,282.614,283.071,28.421,260.017,491.614,231.622,463.218,694.815
bas,axc,1,123117,bas_axc_run1_123117,BY,1600,U,P,white,center,1,1,832,1,1,668,1,1,1,398425,403224,403892,399257,111012,28,1,287.413,288.245,292.212,292.88,28.421,260.017,491.614,231.622,463.218,694.815
bas,axc,1,123117,bas_axc_run1_123117,BX,2800,F,X,white,center,1,1,0,0,,627,0,2,0,405624,410423,411050,0,111012,29,0,294.612,-111.012,299.411,300.038,28.421,260.017,491.614,231.622,463.218,694.815
bas,axc,1,123117,bas_axc_run1_123117,BY,4000,H,U,white,center,1,1,673,1,1,865,1,1,1,414022,418822,419687,414695,111012,30,1,303.01,303.683,307.81,308.675,28.421,260.017,491.614,231.622,463.218,694.815
bas,axc,1,123117,bas_axc_run1_123117,AX,1600,A,X,white,center,1,2,654,1,1,386,1,2,1,423621,428420,428806,424275,111012,31,1,312.609,313.263,317.408,317.794,28.421,260.017,491.614,231.622,463.218,694.815
bas,axc,1,123117,bas_axc_run1_123117,AY,1600,A,N,white,center,1,1,486,1,1,905,1,1,1,430820,435619,436524,431306,111012,32,1,319.808,320.294,324.607,325.512,28.421,260.017,491.614,231.622,463.218,694.815
bas,axc,1,123117,bas_axc_run1_123117,BX,2800,C,X,white,center,1,1,721,1,1,0,0,,0,438019,442818,0,438740,111012,33,0,327.007,327.728,331.806,-111.012,28.421,260.017,491.614,231.622,463.218,694.815
bas,axc,1,123117,bas_axc_run1_123117,Ang,2800,A,9,white,center,1,,367,1,1,0,1,,1,446417,451217,0,446784,111012,34,1,335.405,335.772,340.205,-111.012,28.421,260.017,491.614,231.622,463.218,694.815
bas,axc,1,123117,bas_axc_run1_123117,AX,4000,A,X,white,center,1,2,469,1,1,475,1,2,1,454816,459632,460107,455285,111012,35,1,343.804,344.273,348.62,349.095,28.421,260.017,491.614,231.622,463.218,694.815
bas,axc,1,123117,bas_axc_run1_123117,BY,4000,D,T,white,center,1,1,704,1,1,739,1,1,1,464431,469230,469969,465135,111012,36,1,353.419,354.123,358.218,358.957,28.421,260.017,491.614,231.622,463.218,694.815
bas,axc,1,123117,bas_axc_run1_123117,AX,4000,A,X,white,center,1,2,385,1,1,650,1,2,1,474030,478829,479479,474415,111012,37,1,363.018,363.403,367.817,368.467,28.421,260.017,491.614,231.622,463.218,694.815
bas,axc,1,123117,bas_axc_run1_123117,AX,1600,A,X,white,center,1,2,583,1,1,0,0,,0,483628,488427,0,484211,111012,38,0,372.616,373.199,377.415,-111.012,28.421,260.017,491.614,231.622,463.218,694.815
bas,axc,1,123117,bas_axc_run1_123117,AY,4000,A,D,white,center,1,1,434,1,1,328,0,2,0,490827,495626,495954,491261,111012,39,0,379.815,380.249,384.614,384.942,28.421,260.017,491.614,231.622,463.218,694.815
bas,axc,1,123117,bas_axc_run1_123117,BY,2800,C,D,white,center,1,1,0,0,,733,0,2,0,500425,505225,505958,0,111012,40,0,389.413,-111.012,394.213,394.946,28.421,260.017,491.614,231.622,463.218,694.815
bas,axc,1,123117,bas_axc_run1_123117,BY,2800,U,D,white,center,1,1,604,1,1,788,1,1,1,508824,513623,514411,509428,111012,41,1,397.812,398.416,402.611,403.399,28.421,260.017,491.614,231.622,463.218,694.815
bas,axc,1,123117,bas_axc_run1_123117,Bng,2800,C,8,white,center,1,,441,1,1,1033,0,1,0,517223,522022,523055,517664,111012,42,0,406.211,406.652,411.01,412.043,28.421,260.017,491.614,231.622,463.218,694.815
bas,axc,1,123117,bas_axc_run1_123117,Ang,4000,A,1,white,center,1,,0,0,,0,1,,0,525621,530421,0,0,111012,43,0,414.609,-111.012,419.409,-111.012,28.421,260.017,491.614,231.622,463.218,694.815
bas,axc,1,123117,bas_axc_run1_123117,BY,1600,M,F,white,center,1,1,671,1,1,1154,1,1,1,535220,540019,541173,535891,111012,44,1,424.208,424.879,429.007,430.161,28.421,260.017,491.614,231.622,463.218,694.815
bas,axc,1,123117,bas_axc_run1_123117,AX,1600,A,X,white,center,1,2,530,1,1,621,1,2,1,542419,547218,547839,542949,111012,45,1,431.407,431.937,436.206,436.827,28.421,260.017,491.614,231.622,463.218,694.815
bas,axc,1,123117,bas_axc_run1_123117,BY,2800,H,T,white,center,1,1,781,1,1,0,0,,0,549618,554417,0,550399,111012,46,0,438.606,439.387,443.405,-111.012,28.421,260.017,491.614,231.622,463.218,694.815
bas,axc,1,123117,bas_axc_run1_123117,AX,4000,A,X,white,center,1,2,479,1,1,377,1,2,1,558016,562816,563193,558495,111012,47,1,447.004,447.483,451.804,452.181,28.421,260.017,491.614,231.622,463.218,694.815
bas,axc,1,123117,bas_axc_run1_123117,Bng,1600,H,8,white,center,1,,667,1,1,0,1,,1,567631,572431,0,568298,111012,48,1,456.619,457.286,461.419,-111.012,28.421,260.017,491.614,231.622,463.218,694.815
bas,axc,1,123117,bas_axc_run1_123117,AX,2800,A,X,white,center,1,2,444,1,1,589,1,2,1,604826,609625,610214,605270,111012,49,1,493.814,494.258,498.613,499.202,28.421,260.017,491.614,231.622,463.218,694.815
bas,axc,1,123117,bas_axc_run1_123117,BY,1600,T,M,white,center,1,1,585,1,1,500,1,1,1,613224,618023,618523,613809,111012,50,1,502.212,502.797,507.011,507.511,28.421,260.017,491.614,231.622,463.218,694.815
bas,axc,1,123117,bas_axc_run1_123117,AX,1600,A,X,white,center,1,2,0,0,,700,1,2,0,620423,625222,625922,0,111012,51,0,509.411,-111.012,514.21,514.91,28.421,260.017,491.614,231.622,463.218,694.815
bas,axc,1,123117,bas_axc_run1_123117,BY,2800,P,H,white,center,1,1,507,1,1,0,0,,0,627622,632421,0,628129,111012,52,0,516.61,517.117,521.409,-111.012,28.421,260.017,491.614,231.622,463.218,694.815
bas,axc,1,123117,bas_axc_run1_123117,Bng,1600,U,5,white,center,1,,592,1,1,0,1,,1,636021,640820,0,636613,111012,53,1,525.009,525.601,529.808,-111.012,28.421,260.017,491.614,231.622,463.218,694.815
bas,axc,1,123117,bas_axc_run1_123117,AX,2800,A,X,white,center,1,2,0,0,,429,1,2,0,643219,648019,648448,0,111012,54,0,532.207,-111.012,537.007,537.436,28.421,260.017,491.614,231.622,463.218,694.815
bas,axc,1,123117,bas_axc_run1_123117,BY,1600,D,T,white,center,1,1,558,1,1,775,1,1,1,651618,656417,657192,652176,111012,55,1,540.606,541.164,545.405,546.18,28.421,260.017,491.614,231.622,463.218,694.815
bas,axc,1,123117,bas_axc_run1_123117,BX,4000,U,X,white,center,1,1,494,1,1,0,0,,0,658817,663616,0,659311,111012,56,0,547.805,548.299,552.604,-111.012,28.421,260.017,491.614,231.622,463.218,694.815
bas,axc,1,123117,bas_axc_run1_123117,BY,4000,P,H,white,center,1,1,0,0,,790,1,1,0,668432,673231,674021,0,111012,57,0,557.42,-111.012,562.219,563.009,28.421,260.017,491.614,231.622,463.218,694.815
bas,axc,1,123117,bas_axc_run1_123117,AX,4000,A,X,white,center,1,2,538,1,1,432,1,2,1,678031,682830,683262,678569,111012,58,1,567.019,567.557,571.818,572.25,28.421,260.017,491.614,231.622,463.218,694.815
bas,axc,1,123117,bas_axc_run1_123117,AX,4000,A,X,white,center,1,2,0,0,,500,1,2,0,687629,692428,692928,0,111012,59,0,576.617,-111.012,581.416,581.916,28.421,260.017,491.614,231.622,463.218,694.815
bas,axc,1,123117,bas_axc_run1_123117,BX,2800,U,X,white,center,1,1,0,0,,852,0,2,0,697228,702027,702879,0,111012,60,0,586.216,-111.012,591.015,591.867,28.421,260.017,491.614,231.622,463.218,694.815
bas,axc,1,123117,bas_axc_run1_123117,BY,4000,H,U,white,center,1,1,0,0,,480,1,1,0,705626,710426,710906,0,111012,61,0,594.614,-111.012,599.414,599.894,28.421,260.017,491.614,231.622,463.218,694.815
bas,axc,1,123117,bas_axc_run1_123117,BY,2800,T,N,white,center,1,1,489,1,1,666,1,1,1,715225,720024,720690,715714,111012,62,1,604.213,604.702,609.012,609.678,28.421,260.017,491.614,231.622,463.218,694.815
bas,axc,1,123117,bas_axc_run1_123117,AX,2800,A,X,white,center,1,2,616,1,1,360,1,2,1,723623,728423,728783,724239,111012,63,1,612.611,613.227,617.411,617.771,28.421,260.017,491.614,231.622,463.218,694.815
bas,axc,1,123117,bas_axc_run1_123117,AY,2800,A,H,white,center,1,1,402,1,1,0,0,,0,732022,736821,0,732424,111012,64,0,621.01,621.412,625.809,-111.012,28.421,260.017,491.614,231.622,463.218,694.815
bas,axc,1,123117,bas_axc_run1_123117,Ang,1600,A,5,white,center,1,,462,1,1,0,1,,1,740421,745220,0,740883,111012,65,1,629.409,629.871,634.208,-111.012,28.421,260.017,491.614,231.622,463.218,694.815
bas,axc,1,123117,bas_axc_run1_123117,AY,4000,A,T,white,center,1,1,662,1,1,568,0,2,0,747620,752419,752987,748282,111012,66,0,636.608,637.27,641.407,641.975,28.421,260.017,491.614,231.622,463.218,694.815
bas,axc,1,123117,bas_axc_run1_123117,AX,1600,A,X,white,center,1,2,388,1,1,0,0,,0,757218,762017,0,757606,111012,67,0,646.206,646.594,651.005,-111.012,28.421,260.017,491.614,231.622,463.218,694.815
