session,task,run,subj,name,stimuli,number,letter,trial.type,cue,number.resp,letter.resp,award,switch,cue.color,target.color,target.color.orig,incentive,iti,acc,rt,resp,cresp,time.cue.onset.abs,time.target.onset.abs,time.rt.abs,time.scan.start,trial.num,time.cue.onset,time.target.onset,time.rt,time.block1.on,time.block2.on,time.block3.on,time.block1.off,time.block2.off,time.block3.off,trial.type.switch
baseline,Cuedts,1,102008,bas_cue_run1_102008,6I,e,v,Con,n,1,1,,,red,black,green,Inc,3200,1,1301,1,1,97502,102002,103303,66376,1,31.126,35.626,36.927,28.427,274.421,520.415,246.026,492.037,738.031,trial1
baseline,Cuedts,1,102008,bas_cue_run1_102008,I6,e,v,Con,l,1,1,,Switch,red,black,green,Inc,4400,1,853,1,1,109500,114000,114853,66376,2,43.124,47.624,48.477,28.427,274.421,520.415,246.026,492.037,738.031,ConSwitch
baseline,Cuedts,1,102008,bas_cue_run1_102008,A2,e,v,Con,l,1,1,,Repeat,red,black,black,NoInc,3200,1,906,1,1,122698,127198,128104,66376,3,56.322,60.822,61.728,28.427,274.421,520.415,246.026,492.037,738.031,ConRepeat
baseline,Cuedts,1,102008,bas_cue_run1_102008,I6,e,v,Con,n,1,1,,Switch,red,black,black,NoInc,4400,1,595,1,1,134696,139196,139791,66376,4,68.32,72.82,73.415,28.427,274.421,520.415,246.026,492.037,738.031,ConSwitch
baseline,Cuedts,1,102008,bas_cue_run1_102008,B1,o,c,Con,n,2,2,,Repeat,red,black,black,NoInc,2000,1,780,2,2,147894,152394,153174,66376,5,81.518,86.018,86.798,28.427,274.421,520.415,246.026,492.037,738.031,ConRepeat
baseline,Cuedts,1,102008,bas_cue_run1_102008,B2,e,c,InCon,n,1,2,,Repeat,red,black,black,NoInc,2000,1,890,1,1,158693,163192,164082,66376,6,92.317,96.816,97.706,28.427,274.421,520.415,246.026,492.037,738.031,InConRepeat
baseline,Cuedts,1,102008,bas_cue_run1_102008,1B,o,c,Con,n,2,2,,Repeat,red,black,black,NoInc,2000,1,706,2,2,169491,173990,174696,66376,7,103.115,107.614,108.32,28.427,274.421,520.415,246.026,492.037,738.031,ConRepeat
baseline,Cuedts,1,102008,bas_cue_run1_102008,D4,e,c,InCon,n,1,2,,Repeat,red,black,green,Inc,3200,1,804,1,1,180306,184805,185609,66376,8,113.93,118.429,119.233,28.427,274.421,520.415,246.026,492.037,738.031,InConRepeat
baseline,Cuedts,1,102008,bas_cue_run1_102008,5H,o,c,Con,l,2,2,,Switch,red,black,black,NoInc,4400,1,837,2,2,192304,196803,197640,66376,9,125.928,130.427,131.264,28.427,274.421,520.415,246.026,492.037,738.031,ConSwitch
baseline,Cuedts,1,102008,bas_cue_run1_102008,4D,e,c,InCon,n,1,2,,Switch,red,black,green,Inc,3200,1,624,1,1,205502,210001,210625,66376,10,139.126,143.625,144.249,28.427,274.421,520.415,246.026,492.037,738.031,InConSwitch
baseline,Cuedts,1,102008,bas_cue_run1_102008,B1,o,c,Con,l,2,2,,Switch,red,black,black,NoInc,3200,1,1320,2,2,217500,221999,223319,66376,11,151.124,155.623,156.943,28.427,274.421,520.415,246.026,492.037,738.031,ConSwitch
baseline,Cuedts,1,102008,bas_cue_run1_102008,1A,o,v,InCon,l,2,1,,Repeat,red,black,black,NoInc,2000,1,941,1,1,229498,233997,234938,66376,12,163.122,167.621,168.562,28.427,274.421,520.415,246.026,492.037,738.031,InConRepeat
baseline,Cuedts,1,102008,bas_cue_run1_102008,H5,o,c,Con,l,2,2,,Repeat,red,black,black,NoInc,3200,1,674,2,2,240296,244796,245470,66376,13,173.92,178.42,179.094,28.427,274.421,520.415,246.026,492.037,738.031,ConRepeat
baseline,Cuedts,1,102008,bas_cue_run1_102008,1B,o,c,Con,l,2,2,,Repeat,red,black,black,NoInc,2000,1,832,2,2,252295,256794,257626,66376,14,185.919,190.418,191.25,28.427,274.421,520.415,246.026,492.037,738.031,ConRepeat
baseline,Cuedts,1,102008,bas_cue_run1_102008,D4,e,c,InCon,l,1,2,,Repeat,red,black,green,Inc,4400,1,700,2,2,263093,267592,268292,66376,15,196.717,201.216,201.916,28.427,274.421,520.415,246.026,492.037,738.031,InConRepeat
baseline,Cuedts,1,102008,bas_cue_run1_102008,2A,e,v,Con,n,1,1,,Switch,red,black,black,NoInc,4400,1,658,1,1,276291,280790,281448,66376,16,209.915,214.414,215.072,28.427,274.421,520.415,246.026,492.037,738.031,ConSwitch
baseline,Cuedts,1,102008,bas_cue_run1_102008,E3,o,v,InCon,l,2,1,,Switch,red,black,green,Inc,4400,1,689,1,1,289505,294005,294694,66376,17,223.129,227.629,228.318,28.427,274.421,520.415,246.026,492.037,738.031,InConSwitch
baseline,Cuedts,1,102008,bas_cue_run1_102008,A2,e,v,Con,n,1,1,,Switch,red,black,black,NoInc,2000,1,779,1,1,302703,307202,307981,66376,18,236.327,240.826,241.605,28.427,274.421,520.415,246.026,492.037,738.031,ConSwitch
baseline,Cuedts,1,102008,bas_cue_run1_102008,E3,o,v,InCon,n,2,1,,,red,black,green,Inc,2000,1,1281,2,2,343497,347996,349277,66376,19,277.121,281.62,282.901,28.427,274.421,520.415,246.026,492.037,738.031,trial1
baseline,Cuedts,1,102008,bas_cue_run1_102008,2B,e,c,InCon,l,1,2,,Switch,red,black,black,NoInc,4400,0,942,1,2,354295,358794,359736,66376,20,287.919,292.418,293.36,28.427,274.421,520.415,246.026,492.037,738.031,InConSwitch
baseline,Cuedts,1,102008,bas_cue_run1_102008,D4,e,c,InCon,l,1,2,,Repeat,red,black,green,Inc,3200,1,849,2,2,367493,371992,372841,66376,21,301.117,305.616,306.465,28.427,274.421,520.415,246.026,492.037,738.031,InConRepeat
baseline,Cuedts,1,102008,bas_cue_run1_102008,A2,e,v,Con,n,1,1,,Switch,red,black,black,NoInc,2000,1,833,1,1,379491,383990,384823,66376,22,313.115,317.614,318.447,28.427,274.421,520.415,246.026,492.037,738.031,ConSwitch
baseline,Cuedts,1,102008,bas_cue_run1_102008,B1,o,c,Con,l,2,2,,Switch,red,black,black,NoInc,3200,1,978,2,2,390306,394805,395783,66376,23,323.93,328.429,329.407,28.427,274.421,520.415,246.026,492.037,738.031,ConSwitch
baseline,Cuedts,1,102008,bas_cue_run1_102008,A1,o,v,InCon,n,2,1,,Switch,red,black,black,NoInc,4400,1,1526,2,2,402304,406803,408329,66376,24,335.928,340.427,341.953,28.427,274.421,520.415,246.026,492.037,738.031,InConSwitch
baseline,Cuedts,1,102008,bas_cue_run1_102008,2A,e,v,Con,l,1,1,,Switch,red,black,black,NoInc,3200,1,878,1,1,415502,420001,420879,66376,25,349.126,353.625,354.503,28.427,274.421,520.415,246.026,492.037,738.031,ConSwitch
baseline,Cuedts,1,102008,bas_cue_run1_102008,I6,e,v,Con,l,1,1,,Repeat,red,black,black,NoInc,4400,1,666,1,1,427500,431999,432665,66376,26,361.124,365.623,366.289,28.427,274.421,520.415,246.026,492.037,738.031,ConRepeat
baseline,Cuedts,1,102008,bas_cue_run1_102008,3E,o,v,InCon,l,2,1,,Repeat,red,black,green,Inc,2000,1,939,1,1,440698,445197,446136,66376,27,374.322,378.821,379.76,28.427,274.421,520.415,246.026,492.037,738.031,InConRepeat
baseline,Cuedts,1,102008,bas_cue_run1_102008,6I,e,v,Con,n,1,1,,Switch,red,black,black,NoInc,3200,1,860,1,1,451496,455996,456856,66376,28,385.12,389.62,390.48,28.427,274.421,520.415,246.026,492.037,738.031,ConSwitch
baseline,Cuedts,1,102008,bas_cue_run1_102008,E3,o,v,InCon,n,2,1,,Repeat,red,black,green,Inc,2000,1,1227,2,2,463494,467994,469221,66376,29,397.118,401.618,402.845,28.427,274.421,520.415,246.026,492.037,738.031,InConRepeat
baseline,Cuedts,1,102008,bas_cue_run1_102008,1B,o,c,Con,n,2,2,,Repeat,red,black,black,NoInc,3200,1,1385,2,2,474293,478792,480177,66376,30,407.917,412.416,413.801,28.427,274.421,520.415,246.026,492.037,738.031,ConRepeat
baseline,Cuedts,1,102008,bas_cue_run1_102008,2A,e,v,Con,n,1,1,,Repeat,red,black,black,NoInc,2000,1,1324,1,1,486291,490790,492114,66376,31,419.915,424.414,425.738,28.427,274.421,520.415,246.026,492.037,738.031,ConRepeat
baseline,Cuedts,1,102008,bas_cue_run1_102008,5H,o,c,Con,l,2,2,,Switch,red,black,black,NoInc,3200,1,894,2,2,497106,501605,502499,66376,32,430.73,435.229,436.123,28.427,274.421,520.415,246.026,492.037,738.031,ConSwitch
baseline,Cuedts,1,102008,bas_cue_run1_102008,1B,o,c,Con,l,2,2,,Repeat,red,black,black,NoInc,4400,1,660,2,2,509104,513603,514263,66376,33,442.728,447.227,447.887,28.427,274.421,520.415,246.026,492.037,738.031,ConRepeat
baseline,Cuedts,1,102008,bas_cue_run1_102008,5H,o,c,Con,n,2,2,,Switch,red,black,green,Inc,4400,1,1187,2,2,522302,526801,527988,66376,34,455.926,460.425,461.612,28.427,274.421,520.415,246.026,492.037,738.031,ConSwitch
baseline,Cuedts,1,102008,bas_cue_run1_102008,3E,o,v,InCon,n,2,1,,Repeat,red,black,green,Inc,2000,1,1609,2,2,535500,539999,541608,66376,35,469.124,473.623,475.232,28.427,274.421,520.415,246.026,492.037,738.031,InConRepeat
baseline,Cuedts,1,102008,bas_cue_run1_102008,2A,e,v,Con,l,1,1,,Switch,red,black,black,NoInc,4400,1,934,1,1,546298,550797,551731,66376,36,479.922,484.421,485.355,28.427,274.421,520.415,246.026,492.037,738.031,ConSwitch
baseline,Cuedts,1,102008,bas_cue_run1_102008,6I,e,v,Con,l,1,1,,,red,black,black,NoInc,3200,1,778,1,1,589491,593990,594768,66376,37,523.115,527.614,528.392,28.427,274.421,520.415,246.026,492.037,738.031,trial1
baseline,Cuedts,1,102008,bas_cue_run1_102008,H5,o,c,Con,n,2,2,,Switch,red,black,black,NoInc,2000,1,1076,2,2,601506,606005,607081,66376,38,535.13,539.629,540.705,28.427,274.421,520.415,246.026,492.037,738.031,ConSwitch
baseline,Cuedts,1,102008,bas_cue_run1_102008,B1,o,c,Con,n,2,2,,Repeat,red,black,black,NoInc,4400,1,731,2,2,612304,616803,617534,66376,39,545.928,550.427,551.158,28.427,274.421,520.415,246.026,492.037,738.031,ConRepeat
baseline,Cuedts,1,102008,bas_cue_run1_102008,3E,o,v,InCon,l,2,1,,Switch,red,black,green,Inc,4400,1,1061,1,1,625502,630001,631062,66376,40,559.126,563.625,564.686,28.427,274.421,520.415,246.026,492.037,738.031,InConSwitch
baseline,Cuedts,1,102008,bas_cue_run1_102008,1B,o,c,Con,l,2,2,,Repeat,red,black,black,NoInc,2000,1,1736,2,2,638700,643199,644935,66376,41,572.324,576.823,578.559,28.427,274.421,520.415,246.026,492.037,738.031,ConRepeat
baseline,Cuedts,1,102008,bas_cue_run1_102008,4D,e,c,InCon,l,1,2,,Repeat,red,black,green,Inc,3200,1,1258,2,2,649498,653998,655256,66376,42,583.122,587.622,588.88,28.427,274.421,520.415,246.026,492.037,738.031,InConRepeat
baseline,Cuedts,1,102008,bas_cue_run1_102008,1B,o,c,Con,n,2,2,,Switch,red,black,black,NoInc,4400,1,2061,2,2,661496,665996,668057,66376,43,595.12,599.62,601.681,28.427,274.421,520.415,246.026,492.037,738.031,ConSwitch
baseline,Cuedts,1,102008,bas_cue_run1_102008,1A,o,v,InCon,n,2,1,,Repeat,red,black,black,NoInc,2000,1,1434,2,2,674694,679194,680628,66376,44,608.318,612.818,614.252,28.427,274.421,520.415,246.026,492.037,738.031,InConRepeat
baseline,Cuedts,1,102008,bas_cue_run1_102008,B1,o,c,Con,l,2,2,,Switch,red,black,black,NoInc,3200,1,1183,2,2,685493,689992,691175,66376,45,619.117,623.616,624.799,28.427,274.421,520.415,246.026,492.037,738.031,ConSwitch
baseline,Cuedts,1,102008,bas_cue_run1_102008,A2,e,v,Con,n,1,1,,Switch,red,black,black,NoInc,2000,1,1064,1,1,697491,701990,703054,66376,46,631.115,635.614,636.678,28.427,274.421,520.415,246.026,492.037,738.031,ConSwitch
baseline,Cuedts,1,102008,bas_cue_run1_102008,E3,o,v,InCon,l,2,1,,Switch,red,black,green,Inc,4400,1,1513,1,1,708306,712805,714318,66376,47,641.93,646.429,647.942,28.427,274.421,520.415,246.026,492.037,738.031,InConSwitch
baseline,Cuedts,1,102008,bas_cue_run1_102008,4D,e,c,InCon,n,1,2,,Switch,red,black,green,Inc,4400,1,1168,1,1,721503,726003,727171,66376,48,655.127,659.627,660.795,28.427,274.421,520.415,246.026,492.037,738.031,InConSwitch
baseline,Cuedts,1,102008,bas_cue_run1_102008,A2,e,v,Con,l,1,1,,Switch,red,black,black,NoInc,4400,1,1060,1,1,734701,739201,740261,66376,49,668.325,672.825,673.885,28.427,274.421,520.415,246.026,492.037,738.031,ConSwitch
baseline,Cuedts,1,102008,bas_cue_run1_102008,6I,e,v,Con,n,1,1,,Switch,red,black,black,NoInc,3200,1,910,1,1,747899,752399,753309,66376,50,681.523,686.023,686.933,28.427,274.421,520.415,246.026,492.037,738.031,ConSwitch
baseline,Cuedts,1,102008,bas_cue_run1_102008,2A,e,v,Con,l,1,1,,Switch,red,black,black,NoInc,3200,1,1073,1,1,759897,764397,765470,66376,51,693.521,698.021,699.094,28.427,274.421,520.415,246.026,492.037,738.031,ConSwitch
baseline,Cuedts,1,102008,bas_cue_run1_102008,2A,e,v,Con,n,1,1,,Switch,red,black,black,NoInc,2000,1,1111,1,1,771895,776395,777506,66376,52,705.519,710.019,711.13,28.427,274.421,520.415,246.026,492.037,738.031,ConSwitch
baseline,Cuedts,1,102008,bas_cue_run1_102008,3E,o,v,InCon,n,2,1,,Repeat,red,black,green,Inc,3200,1,1569,2,2,782694,787193,788762,66376,53,716.318,720.817,722.386,28.427,274.421,520.415,246.026,492.037,738.031,InConRepeat
baseline,Cuedts,1,102008,bas_cue_run1_102008,H5,o,c,Con,l,2,2,,Switch,red,black,green,Inc,2000,1,891,2,2,794692,799191,800082,66376,54,728.316,732.815,733.706,28.427,274.421,520.415,246.026,492.037,738.031,ConSwitch
baseline,Cuedts,2,102008,bas_cue_run2_102008,H5,o,c,Con,l,2,2,,,red,black,black,NoInc,3200,1,1002,2,2,60265,64764,65766,29148,1,31.117,35.616,36.618,28.417,274.412,520.423,246.033,492.027,738.021,trial1
baseline,Cuedts,2,102008,bas_cue_run2_102008,5H,o,c,Con,n,2,2,,Switch,red,black,black,NoInc,3200,1,1156,2,2,72263,76762,77918,29148,2,43.115,47.614,48.77,28.417,274.412,520.423,246.033,492.027,738.021,ConSwitch
baseline,Cuedts,2,102008,bas_cue_run2_102008,E3,o,v,InCon,l,2,1,,Switch,red,black,green,Inc,4400,1,948,1,1,84261,88760,89708,29148,3,55.113,59.612,60.56,28.417,274.412,520.423,246.033,492.027,738.021,InConSwitch
baseline,Cuedts,2,102008,bas_cue_run2_102008,2A,e,v,Con,n,1,1,,Switch,red,black,black,NoInc,2000,1,761,1,1,97459,101958,102719,29148,4,68.311,72.81,73.571,28.417,274.412,520.423,246.033,492.027,738.021,ConSwitch
baseline,Cuedts,2,102008,bas_cue_run2_102008,1B,o,c,Con,n,2,2,,Repeat,red,black,black,NoInc,4400,1,1250,2,2,108257,112773,114023,29148,5,79.109,83.625,84.875,28.417,274.412,520.423,246.033,492.027,738.021,ConRepeat
baseline,Cuedts,2,102008,bas_cue_run2_102008,B2,e,c,InCon,l,1,2,,Switch,red,black,black,NoInc,2000,1,1045,2,2,121472,125971,127016,29148,6,92.324,96.823,97.868,28.417,274.412,520.423,246.033,492.027,738.021,InConSwitch
baseline,Cuedts,2,102008,bas_cue_run2_102008,E3,o,v,InCon,n,2,1,,Switch,red,black,green,Inc,4400,1,1024,2,2,132270,136769,137793,29148,7,103.122,107.621,108.645,28.417,274.412,520.423,246.033,492.027,738.021,InConSwitch
baseline,Cuedts,2,102008,bas_cue_run2_102008,B1,o,c,Con,n,2,2,,Repeat,red,black,black,NoInc,3200,1,1473,2,2,145468,149967,151440,29148,8,116.32,120.819,122.292,28.417,274.412,520.423,246.033,492.027,738.021,ConRepeat
baseline,Cuedts,2,102008,bas_cue_run2_102008,6I,e,v,Con,n,1,1,,Repeat,red,black,black,NoInc,2000,1,1032,1,1,157466,161965,162997,29148,9,128.318,132.817,133.849,28.417,274.412,520.423,246.033,492.027,738.021,ConRepeat
baseline,Cuedts,2,102008,bas_cue_run2_102008,B1,o,c,Con,l,2,2,,Switch,red,black,black,NoInc,4400,1,1265,2,2,168264,172764,174029,29148,10,139.116,143.616,144.881,28.417,274.412,520.423,246.033,492.027,738.021,ConSwitch
baseline,Cuedts,2,102008,bas_cue_run2_102008,2A,e,v,Con,l,1,1,,Repeat,red,black,black,NoInc,2000,1,627,1,1,181462,185962,186589,29148,11,152.314,156.814,157.441,28.417,274.412,520.423,246.033,492.027,738.021,ConRepeat
baseline,Cuedts,2,102008,bas_cue_run2_102008,A2,e,v,Con,n,1,1,,Switch,red,black,black,NoInc,4400,1,975,1,1,192261,196760,197735,29148,12,163.113,167.612,168.587,28.417,274.412,520.423,246.033,492.027,738.021,ConSwitch
baseline,Cuedts,2,102008,bas_cue_run2_102008,3E,o,v,InCon,n,2,1,,Repeat,red,black,green,Inc,2000,1,1864,2,2,205458,209958,211822,29148,13,176.31,180.81,182.674,28.417,274.412,520.423,246.033,492.027,738.021,InConRepeat
baseline,Cuedts,2,102008,bas_cue_run2_102008,D4,e,c,InCon,n,1,2,,Repeat,red,black,green,Inc,3200,1,900,1,1,216257,220773,221673,29148,14,187.109,191.625,192.525,28.417,274.412,520.423,246.033,492.027,738.021,InConRepeat
baseline,Cuedts,2,102008,bas_cue_run2_102008,4D,e,c,InCon,l,1,2,,Switch,red,black,green,Inc,2000,1,1647,2,2,228271,232771,234418,29148,15,199.123,203.623,205.27,28.417,274.412,520.423,246.033,492.027,738.021,InConSwitch
baseline,Cuedts,2,102008,bas_cue_run2_102008,A2,e,v,Con,l,1,1,,Repeat,red,black,black,NoInc,3200,1,753,1,1,239070,243569,244322,29148,16,209.922,214.421,215.174,28.417,274.412,520.423,246.033,492.027,738.021,ConRepeat
baseline,Cuedts,2,102008,bas_cue_run2_102008,6I,e,v,Con,l,1,1,,Repeat,red,black,green,Inc,4400,1,1153,1,1,251068,255567,256720,29148,17,221.92,226.419,227.572,28.417,274.412,520.423,246.033,492.027,738.021,ConRepeat
baseline,Cuedts,2,102008,bas_cue_run2_102008,1B,o,c,Con,l,2,2,,Repeat,red,black,black,NoInc,3200,1,1353,2,2,264266,268765,270118,29148,18,235.118,239.617,240.97,28.417,274.412,520.423,246.033,492.027,738.021,ConRepeat
baseline,Cuedts,2,102008,bas_cue_run2_102008,2A,e,v,Con,n,1,1,,,red,black,black,NoInc,4400,1,921,1,1,306259,310758,311679,29148,19,277.111,281.61,282.531,28.417,274.412,520.423,246.033,492.027,738.021,trial1
baseline,Cuedts,2,102008,bas_cue_run2_102008,I6,e,v,Con,l,1,1,,Switch,red,black,black,NoInc,3200,1,1027,1,1,319457,323973,325000,29148,20,290.309,294.825,295.852,28.417,274.412,520.423,246.033,492.027,738.021,ConSwitch
baseline,Cuedts,2,102008,bas_cue_run2_102008,H5,o,c,Con,l,2,2,,Repeat,red,black,black,NoInc,4400,1,689,2,2,331472,335971,336660,29148,21,302.324,306.823,307.512,28.417,274.412,520.423,246.033,492.027,738.021,ConRepeat
baseline,Cuedts,2,102008,bas_cue_run2_102008,B1,o,c,Con,n,2,2,,Switch,red,black,black,NoInc,2000,1,715,2,2,344670,349169,349884,29148,22,315.522,320.021,320.736,28.417,274.412,520.423,246.033,492.027,738.021,ConSwitch
baseline,Cuedts,2,102008,bas_cue_run2_102008,I6,e,v,Con,n,1,1,,Repeat,red,black,green,Inc,2000,1,880,1,1,355468,359967,360847,29148,23,326.32,330.819,331.699,28.417,274.412,520.423,246.033,492.027,738.021,ConRepeat
baseline,Cuedts,2,102008,bas_cue_run2_102008,A2,e,v,Con,n,1,1,,Repeat,red,black,black,NoInc,3200,1,719,1,1,366266,370766,371485,29148,24,337.118,341.618,342.337,28.417,274.412,520.423,246.033,492.027,738.021,ConRepeat
baseline,Cuedts,2,102008,bas_cue_run2_102008,D4,e,c,InCon,n,1,2,,Repeat,red,black,green,Inc,2000,1,754,1,1,378264,382764,383518,29148,25,349.116,353.616,354.37,28.417,274.412,520.423,246.033,492.027,738.021,InConRepeat
baseline,Cuedts,2,102008,bas_cue_run2_102008,3E,o,v,InCon,l,2,1,,Switch,red,black,green,Inc,4400,1,612,1,1,389063,393562,394174,29148,26,359.915,364.414,365.026,28.417,274.412,520.423,246.033,492.027,738.021,InConSwitch
baseline,Cuedts,2,102008,bas_cue_run2_102008,A2,e,v,Con,l,1,1,,Repeat,red,black,black,NoInc,3200,1,761,1,1,402261,406760,407521,29148,27,373.113,377.612,378.373,28.417,274.412,520.423,246.033,492.027,738.021,ConRepeat
baseline,Cuedts,2,102008,bas_cue_run2_102008,4D,e,c,InCon,n,1,2,,Switch,red,black,green,Inc,3200,1,865,1,1,414259,418758,419623,29148,28,385.111,389.61,390.475,28.417,274.412,520.423,246.033,492.027,738.021,InConSwitch
baseline,Cuedts,2,102008,bas_cue_run2_102008,1B,o,c,Con,l,2,2,,Switch,red,black,black,NoInc,4400,1,1832,2,2,426257,430773,432605,29148,29,397.109,401.625,403.457,28.417,274.412,520.423,246.033,492.027,738.021,ConSwitch
baseline,Cuedts,2,102008,bas_cue_run2_102008,2B,e,c,InCon,n,1,2,,Switch,red,black,black,NoInc,2000,1,872,1,1,439471,443971,444843,29148,30,410.323,414.823,415.695,28.417,274.412,520.423,246.033,492.027,738.021,InConSwitch
baseline,Cuedts,2,102008,bas_cue_run2_102008,D4,e,c,InCon,l,1,2,,Switch,red,black,green,Inc,3200,0,772,1,2,450270,454769,455541,29148,31,421.122,425.621,426.393,28.417,274.412,520.423,246.033,492.027,738.021,InConSwitch
baseline,Cuedts,2,102008,bas_cue_run2_102008,1A,o,v,InCon,n,2,1,,Switch,red,black,black,NoInc,3200,1,1887,2,2,462268,466767,468654,29148,32,433.12,437.619,439.506,28.417,274.412,520.423,246.033,492.027,738.021,InConSwitch
baseline,Cuedts,2,102008,bas_cue_run2_102008,2A,e,v,Con,l,1,1,,Switch,red,black,black,NoInc,2000,1,657,1,1,474266,478765,479422,29148,33,445.118,449.617,450.274,28.417,274.412,520.423,246.033,492.027,738.021,ConSwitch
baseline,Cuedts,2,102008,bas_cue_run2_102008,I6,e,v,Con,n,1,1,,Switch,red,black,black,NoInc,4400,1,917,1,1,485064,489563,490480,29148,34,455.916,460.415,461.332,28.417,274.412,520.423,246.033,492.027,738.021,ConSwitch
baseline,Cuedts,2,102008,bas_cue_run2_102008,B1,o,c,Con,l,2,2,,Switch,red,black,black,NoInc,2000,1,1542,2,2,498262,502761,504303,29148,35,469.114,473.613,475.155,28.417,274.412,520.423,246.033,492.027,738.021,ConSwitch
baseline,Cuedts,2,102008,bas_cue_run2_102008,5H,o,c,Con,l,2,2,,Repeat,red,black,green,Inc,4400,1,648,2,2,509060,513560,514208,29148,36,479.912,484.412,485.06,28.417,274.412,520.423,246.033,492.027,738.021,ConRepeat
baseline,Cuedts,2,102008,bas_cue_run2_102008,A2,e,v,Con,l,1,1,,,red,black,black,NoInc,4400,1,702,1,1,552270,556769,557471,29148,37,523.122,527.621,528.323,28.417,274.412,520.423,246.033,492.027,738.021,trial1
baseline,Cuedts,2,102008,bas_cue_run2_102008,E3,o,v,InCon,l,2,1,,Repeat,red,black,green,Inc,4400,1,805,1,1,565468,569967,570772,29148,38,536.32,540.819,541.624,28.417,274.412,520.423,246.033,492.027,738.021,InConRepeat
baseline,Cuedts,2,102008,bas_cue_run2_102008,2A,e,v,Con,n,1,1,,Switch,red,black,black,NoInc,3200,1,740,1,1,578666,583165,583905,29148,39,549.518,554.017,554.757,28.417,274.412,520.423,246.033,492.027,738.021,ConSwitch
baseline,Cuedts,2,102008,bas_cue_run2_102008,B1,o,c,Con,l,2,2,,Switch,red,black,black,NoInc,2000,1,1026,2,2,590664,595163,596189,29148,40,561.516,566.015,567.041,28.417,274.412,520.423,246.033,492.027,738.021,ConSwitch
baseline,Cuedts,2,102008,bas_cue_run2_102008,4D,e,c,InCon,l,1,2,,Repeat,red,black,green,Inc,2000,1,1373,2,2,601462,605962,607335,29148,41,572.314,576.814,578.187,28.417,274.412,520.423,246.033,492.027,738.021,InConRepeat
baseline,Cuedts,2,102008,bas_cue_run2_102008,3E,o,v,InCon,n,2,1,,Switch,red,black,green,Inc,3200,1,841,2,2,612261,616760,617601,29148,42,583.113,587.612,588.453,28.417,274.412,520.423,246.033,492.027,738.021,InConSwitch
baseline,Cuedts,2,102008,bas_cue_run2_102008,A2,e,v,Con,n,1,1,,Repeat,red,black,black,NoInc,3200,1,1005,1,1,624259,628758,629763,29148,43,595.111,599.61,600.615,28.417,274.412,520.423,246.033,492.027,738.021,ConRepeat
baseline,Cuedts,2,102008,bas_cue_run2_102008,6I,e,v,Con,n,1,1,,Repeat,red,black,black,NoInc,4400,1,923,1,1,636257,640773,641696,29148,44,607.109,611.625,612.548,28.417,274.412,520.423,246.033,492.027,738.021,ConRepeat
baseline,Cuedts,2,102008,bas_cue_run2_102008,1B,o,c,Con,n,2,2,,Repeat,red,black,black,NoInc,2000,1,863,2,2,649471,653971,654834,29148,45,620.323,624.823,625.686,28.417,274.412,520.423,246.033,492.027,738.021,ConRepeat
baseline,Cuedts,2,102008,bas_cue_run2_102008,H5,o,c,Con,n,2,2,,Repeat,red,black,green,Inc,2000,1,1810,2,2,660270,664769,666579,29148,46,631.122,635.621,637.431,28.417,274.412,520.423,246.033,492.027,738.021,ConRepeat
baseline,Cuedts,2,102008,bas_cue_run2_102008,D4,e,c,InCon,l,1,2,,Switch,red,black,green,Inc,3200,1,1580,2,2,671068,675567,677147,29148,47,641.92,646.419,647.999,28.417,274.412,520.423,246.033,492.027,738.021,InConSwitch
baseline,Cuedts,2,102008,bas_cue_run2_102008,1B,o,c,Con,l,2,2,,Repeat,red,black,black,NoInc,3200,1,1765,2,2,683066,687565,689330,29148,48,653.918,658.417,660.182,28.417,274.412,520.423,246.033,492.027,738.021,ConRepeat
baseline,Cuedts,2,102008,bas_cue_run2_102008,H5,o,c,Con,l,2,2,,Repeat,red,black,black,NoInc,2000,1,699,2,2,695064,699563,700262,29148,49,665.916,670.415,671.114,28.417,274.412,520.423,246.033,492.027,738.021,ConRepeat
baseline,Cuedts,2,102008,bas_cue_run2_102008,5H,o,c,Con,n,2,2,,Switch,red,black,black,NoInc,4400,1,687,2,2,705862,710362,711049,29148,50,676.714,681.214,681.901,28.417,274.412,520.423,246.033,492.027,738.021,ConSwitch
baseline,Cuedts,2,102008,bas_cue_run2_102008,A1,o,v,InCon,l,2,1,,Switch,red,black,black,NoInc,2000,1,974,1,1,719060,723560,724534,29148,51,689.912,694.412,695.386,28.417,274.412,520.423,246.033,492.027,738.021,InConSwitch
baseline,Cuedts,2,102008,bas_cue_run2_102008,4D,e,c,InCon,n,1,2,,Switch,red,black,green,Inc,3200,1,1073,1,1,729859,734358,735431,29148,52,700.711,705.21,706.283,28.417,274.412,520.423,246.033,492.027,738.021,InConSwitch
baseline,Cuedts,2,102008,bas_cue_run2_102008,2B,e,c,InCon,l,1,2,,Switch,red,black,black,NoInc,4400,1,1561,2,2,741857,746373,747934,29148,53,712.709,717.225,718.786,28.417,274.412,520.423,246.033,492.027,738.021,InConSwitch
baseline,Cuedts,2,102008,bas_cue_run2_102008,B1,o,c,Con,n,2,2,,Switch,red,black,black,NoInc,4400,1,1581,2,2,755071,759571,761152,29148,54,725.923,730.423,732.004,28.417,274.412,520.423,246.033,492.027,738.021,ConSwitch
baseline,Cuedts,1,107321,bas_cue_run1_107321,B1,o,c,Con,l,2,2,,,red,black,black,NoInc,3200,1,798,2,2,185774,190280,191078,154672,1,31.102,35.608,36.406,28.408,274.405,520.415,246.018,492.015,738.011,trial1
baseline,Cuedts,1,107321,bas_cue_run1_107321,A2,e,v,Con,n,1,1,,Switch,red,black,black,NoInc,4400,1,803,1,1,197787,202280,203083,154672,2,43.115,47.608,48.411,28.408,274.405,520.415,246.018,492.015,738.011,ConSwitch
baseline,Cuedts,1,107321,bas_cue_run1_107321,1A,o,v,InCon,l,2,1,,Switch,red,black,black,NoInc,2000,1,828,1,1,210987,215480,216308,154672,3,56.315,60.808,61.636,28.408,274.405,520.415,246.018,492.015,738.011,InConSwitch
baseline,Cuedts,1,107321,bas_cue_run1_107321,1B,o,c,Con,n,2,2,,Switch,red,black,black,NoInc,4400,1,1176,2,2,221786,226280,227456,154672,4,67.114,71.608,72.784,28.408,274.405,520.415,246.018,492.015,738.011,ConSwitch
baseline,Cuedts,1,107321,bas_cue_run1_107321,I6,e,v,Con,n,1,1,,Repeat,red,black,black,NoInc,4400,1,968,1,1,234986,239479,240447,154672,5,80.314,84.807,85.775,28.408,274.405,520.415,246.018,492.015,738.011,ConRepeat
baseline,Cuedts,1,107321,bas_cue_run1_107321,H5,o,c,Con,l,2,2,,Switch,red,black,black,NoInc,3200,1,907,2,2,248186,252679,253586,154672,6,93.514,98.007,98.914,28.408,274.405,520.415,246.018,492.015,738.011,ConSwitch
baseline,Cuedts,1,107321,bas_cue_run1_107321,6I,e,v,Con,n,1,1,,Switch,red,black,green,Inc,2000,1,1360,1,1,260186,264679,266039,154672,7,105.514,110.007,111.367,28.408,274.405,520.415,246.018,492.015,738.011,ConSwitch
baseline,Cuedts,1,107321,bas_cue_run1_107321,1B,o,c,Con,l,2,2,,Switch,red,black,black,NoInc,2000,1,1093,2,2,270986,275479,276572,154672,8,116.314,120.807,121.9,28.408,274.405,520.415,246.018,492.015,738.011,ConSwitch
baseline,Cuedts,1,107321,bas_cue_run1_107321,E3,o,v,InCon,l,2,1,,Repeat,red,black,green,Inc,3200,1,838,1,1,281786,286279,287117,154672,9,127.114,131.607,132.445,28.408,274.405,520.415,246.018,492.015,738.011,InConRepeat
baseline,Cuedts,1,107321,bas_cue_run1_107321,D4,e,c,InCon,l,1,2,,Repeat,red,black,green,Inc,3200,1,595,2,2,293785,298279,298874,154672,10,139.113,143.607,144.202,28.408,274.405,520.415,246.018,492.015,738.011,InConRepeat
baseline,Cuedts,1,107321,bas_cue_run1_107321,2A,e,v,Con,n,1,1,,Switch,red,black,black,NoInc,2000,1,801,1,1,305785,310278,311079,154672,11,151.113,155.606,156.407,28.408,274.405,520.415,246.018,492.015,738.011,ConSwitch
baseline,Cuedts,1,107321,bas_cue_run1_107321,I6,e,v,Con,l,1,1,,Switch,red,black,green,Inc,2000,1,652,1,1,316585,321078,321730,154672,12,161.913,166.406,167.058,28.408,274.405,520.415,246.018,492.015,738.011,ConSwitch
baseline,Cuedts,1,107321,bas_cue_run1_107321,4D,e,c,InCon,n,1,2,,Switch,red,black,green,Inc,2000,1,877,1,1,327385,331878,332755,154672,13,172.713,177.206,178.083,28.408,274.405,520.415,246.018,492.015,738.011,InConSwitch
baseline,Cuedts,1,107321,bas_cue_run1_107321,A2,e,v,Con,l,1,1,,Switch,red,black,black,NoInc,3200,1,691,1,1,338185,342678,343369,154672,14,183.513,188.006,188.697,28.408,274.405,520.415,246.018,492.015,738.011,ConSwitch
baseline,Cuedts,1,107321,bas_cue_run1_107321,D4,e,c,InCon,n,1,2,,Switch,red,black,green,Inc,4400,1,1125,1,1,350185,354678,355803,154672,15,195.513,200.006,201.131,28.408,274.405,520.415,246.018,492.015,738.011,InConSwitch
baseline,Cuedts,1,107321,bas_cue_run1_107321,B1,o,c,Con,n,2,2,,Repeat,red,black,black,NoInc,4400,1,901,2,2,363384,367878,368779,154672,16,208.712,213.206,214.107,28.408,274.405,520.415,246.018,492.015,738.011,ConRepeat
baseline,Cuedts,1,107321,bas_cue_run1_107321,5H,o,c,Con,l,2,2,,Switch,red,black,black,NoInc,3200,1,819,2,2,376584,381077,381896,154672,17,221.912,226.405,227.224,28.408,274.405,520.415,246.018,492.015,738.011,ConSwitch
baseline,Cuedts,1,107321,bas_cue_run1_107321,B2,e,c,InCon,n,1,2,,Switch,red,black,black,NoInc,4400,1,849,1,1,388584,393077,393926,154672,18,233.912,238.405,239.254,28.408,274.405,520.415,246.018,492.015,738.011,InConSwitch
baseline,Cuedts,1,107321,bas_cue_run1_107321,1B,o,c,Con,n,2,2,,,red,black,black,NoInc,3200,1,777,2,2,431783,436277,437054,154672,19,277.111,281.605,282.382,28.408,274.405,520.415,246.018,492.015,738.011,trial1
baseline,Cuedts,1,107321,bas_cue_run1_107321,D4,e,c,InCon,l,1,2,,Switch,red,black,green,Inc,4400,1,1084,2,2,443783,448276,449360,154672,20,289.111,293.604,294.688,28.408,274.405,520.415,246.018,492.015,738.011,InConSwitch
baseline,Cuedts,1,107321,bas_cue_run1_107321,E3,o,v,InCon,n,2,1,,Switch,red,black,green,Inc,2000,1,1302,2,2,456983,461476,462778,154672,21,302.311,306.804,308.106,28.408,274.405,520.415,246.018,492.015,738.011,InConSwitch
baseline,Cuedts,1,107321,bas_cue_run1_107321,B1,o,c,Con,l,2,2,,Switch,red,black,black,NoInc,2000,1,905,2,2,467783,472276,473181,154672,22,313.111,317.604,318.509,28.408,274.405,520.415,246.018,492.015,738.011,ConSwitch
baseline,Cuedts,1,107321,bas_cue_run1_107321,6I,e,v,Con,n,1,1,,Switch,red,black,black,NoInc,2000,1,1272,1,1,478583,483076,484348,154672,23,323.911,328.404,329.676,28.408,274.405,520.415,246.018,492.015,738.011,ConSwitch
baseline,Cuedts,1,107321,bas_cue_run1_107321,E3,o,v,InCon,n,2,1,,Repeat,red,black,green,Inc,3200,1,1060,2,2,489383,493876,494936,154672,24,334.711,339.204,340.264,28.408,274.405,520.415,246.018,492.015,738.011,InConRepeat
baseline,Cuedts,1,107321,bas_cue_run1_107321,5H,o,c,Con,l,2,2,,Switch,red,black,black,NoInc,4400,1,1160,2,2,501382,505876,507036,154672,25,346.71,351.204,352.364,28.408,274.405,520.415,246.018,492.015,738.011,ConSwitch
baseline,Cuedts,1,107321,bas_cue_run1_107321,2A,e,v,Con,l,1,1,,Repeat,red,black,black,NoInc,3200,1,790,1,1,514582,519075,519865,154672,26,359.91,364.403,365.193,28.408,274.405,520.415,246.018,492.015,738.011,ConRepeat
baseline,Cuedts,1,107321,bas_cue_run1_107321,A1,o,v,InCon,n,2,1,,Switch,red,black,black,NoInc,4400,1,821,2,2,526582,531075,531896,154672,27,371.91,376.403,377.224,28.408,274.405,520.415,246.018,492.015,738.011,InConSwitch
baseline,Cuedts,1,107321,bas_cue_run1_107321,3E,o,v,InCon,n,2,1,,Repeat,red,black,green,Inc,2000,1,910,2,2,539782,544275,545185,154672,28,385.11,389.603,390.513,28.408,274.405,520.415,246.018,492.015,738.011,InConRepeat
baseline,Cuedts,1,107321,bas_cue_run1_107321,3E,o,v,InCon,l,2,1,,Switch,red,black,green,Inc,3200,1,1660,1,1,550582,555075,556735,154672,29,395.91,400.403,402.063,28.408,274.405,520.415,246.018,492.015,738.011,InConSwitch
baseline,Cuedts,1,107321,bas_cue_run1_107321,2A,e,v,Con,n,1,1,,Switch,red,black,black,NoInc,2000,1,760,1,1,562581,567075,567835,154672,30,407.909,412.403,413.163,28.408,274.405,520.415,246.018,492.015,738.011,ConSwitch
baseline,Cuedts,1,107321,bas_cue_run1_107321,2A,e,v,Con,l,1,1,,Switch,red,black,black,NoInc,4400,1,714,1,1,573381,577875,578589,154672,31,418.709,423.203,423.917,28.408,274.405,520.415,246.018,492.015,738.011,ConSwitch
baseline,Cuedts,1,107321,bas_cue_run1_107321,5H,o,c,Con,n,2,2,,Switch,red,black,green,Inc,3200,1,1177,2,2,586581,591074,592251,154672,32,431.909,436.402,437.579,28.408,274.405,520.415,246.018,492.015,738.011,ConSwitch
baseline,Cuedts,1,107321,bas_cue_run1_107321,1B,o,c,Con,l,2,2,,Switch,red,black,black,NoInc,3200,1,1212,2,2,598581,603074,604286,154672,33,443.909,448.402,449.614,28.408,274.405,520.415,246.018,492.015,738.011,ConSwitch
baseline,Cuedts,1,107321,bas_cue_run1_107321,I6,e,v,Con,l,1,1,,Repeat,red,black,black,NoInc,2000,1,516,1,1,610581,615074,615590,154672,34,455.909,460.402,460.918,28.408,274.405,520.415,246.018,492.015,738.011,ConRepeat
baseline,Cuedts,1,107321,bas_cue_run1_107321,2B,e,c,InCon,l,1,2,,Repeat,red,black,black,NoInc,4400,1,1036,2,2,621381,625874,626910,154672,35,466.709,471.202,472.238,28.408,274.405,520.415,246.018,492.015,738.011,InConRepeat
baseline,Cuedts,1,107321,bas_cue_run1_107321,A2,e,v,Con,n,1,1,,Switch,red,black,black,NoInc,4400,1,733,1,1,634580,639074,639807,154672,36,479.908,484.402,485.135,28.408,274.405,520.415,246.018,492.015,738.011,ConSwitch
baseline,Cuedts,1,107321,bas_cue_run1_107321,2A,e,v,Con,l,1,1,,,red,black,black,NoInc,2000,1,1350,1,1,677780,682286,683636,154672,37,523.108,527.614,528.964,28.408,274.405,520.415,246.018,492.015,738.011,trial1
baseline,Cuedts,1,107321,bas_cue_run1_107321,4D,e,c,InCon,l,1,2,,Repeat,red,black,green,Inc,3200,1,620,2,2,688580,693086,693706,154672,38,533.908,538.414,539.034,28.408,274.405,520.415,246.018,492.015,738.011,InConRepeat
baseline,Cuedts,1,107321,bas_cue_run1_107321,A2,e,v,Con,n,1,1,,Switch,red,black,black,NoInc,3200,1,828,1,1,700579,705086,705914,154672,39,545.907,550.414,551.242,28.408,274.405,520.415,246.018,492.015,738.011,ConSwitch
baseline,Cuedts,1,107321,bas_cue_run1_107321,H5,o,c,Con,l,2,2,,Switch,red,black,green,Inc,4400,1,660,2,2,712579,717086,717746,154672,40,557.907,562.414,563.074,28.408,274.405,520.415,246.018,492.015,738.011,ConSwitch
baseline,Cuedts,1,107321,bas_cue_run1_107321,B1,o,c,Con,n,2,2,,Switch,red,black,black,NoInc,4400,1,953,2,2,725779,730286,731239,154672,41,571.107,575.614,576.567,28.408,274.405,520.415,246.018,492.015,738.011,ConSwitch
baseline,Cuedts,1,107321,bas_cue_run1_107321,2A,e,v,Con,n,1,1,,Repeat,red,black,black,NoInc,2000,1,1202,1,1,738979,743486,744688,154672,42,584.307,588.814,590.016,28.408,274.405,520.415,246.018,492.015,738.011,ConRepeat
baseline,Cuedts,1,107321,bas_cue_run1_107321,B1,o,c,Con,l,2,2,,Switch,red,black,black,NoInc,3200,1,809,2,2,749779,754285,755094,154672,43,595.107,599.613,600.422,28.408,274.405,520.415,246.018,492.015,738.011,ConSwitch
baseline,Cuedts,1,107321,bas_cue_run1_107321,H5,o,c,Con,n,2,2,,Switch,red,black,black,NoInc,4400,1,916,2,2,761779,766285,767201,154672,44,607.107,611.613,612.529,28.408,274.405,520.415,246.018,492.015,738.011,ConSwitch
baseline,Cuedts,1,107321,bas_cue_run1_107321,6I,e,v,Con,n,1,1,,Repeat,red,black,black,NoInc,2000,1,929,1,1,774978,779485,780414,154672,45,620.306,624.813,625.742,28.408,274.405,520.415,246.018,492.015,738.011,ConRepeat
baseline,Cuedts,1,107321,bas_cue_run1_107321,E3,o,v,InCon,l,2,1,,Switch,red,black,green,Inc,2000,1,544,1,1,785778,790285,790829,154672,46,631.106,635.613,636.157,28.408,274.405,520.415,246.018,492.015,738.011,InConSwitch
baseline,Cuedts,1,107321,bas_cue_run1_107321,6I,e,v,Con,l,1,1,,Repeat,red,black,black,NoInc,4400,1,794,1,1,796578,801085,801879,154672,47,641.906,646.413,647.207,28.408,274.405,520.415,246.018,492.015,738.011,ConRepeat
baseline,Cuedts,1,107321,bas_cue_run1_107321,A2,e,v,Con,l,1,1,,Repeat,red,black,black,NoInc,2000,1,742,1,1,809778,814285,815027,154672,48,655.106,659.613,660.355,28.408,274.405,520.415,246.018,492.015,738.011,ConRepeat
baseline,Cuedts,1,107321,bas_cue_run1_107321,3E,o,v,InCon,l,2,1,,Repeat,red,black,green,Inc,3200,1,881,1,1,820578,825084,825965,154672,49,665.906,670.412,671.293,28.408,274.405,520.415,246.018,492.015,738.011,InConRepeat
baseline,Cuedts,1,107321,bas_cue_run1_107321,1B,o,c,Con,n,2,2,,Switch,red,black,black,NoInc,4400,1,1058,2,2,832578,837084,838142,154672,50,677.906,682.412,683.47,28.408,274.405,520.415,246.018,492.015,738.011,ConSwitch
baseline,Cuedts,1,107321,bas_cue_run1_107321,4D,e,c,InCon,n,1,2,,Repeat,red,black,green,Inc,3200,1,1007,1,1,845777,850284,851291,154672,51,691.105,695.612,696.619,28.408,274.405,520.415,246.018,492.015,738.011,InConRepeat
baseline,Cuedts,1,107321,bas_cue_run1_107321,3E,o,v,InCon,n,2,1,,Repeat,red,black,green,Inc,3200,1,1469,2,2,857777,862284,863753,154672,52,703.105,707.612,709.081,28.408,274.405,520.415,246.018,492.015,738.011,InConRepeat
baseline,Cuedts,1,107321,bas_cue_run1_107321,1A,o,v,InCon,n,2,1,,Repeat,red,black,black,NoInc,4400,1,641,2,2,869777,874284,874925,154672,53,715.105,719.612,720.253,28.408,274.405,520.415,246.018,492.015,738.011,InConRepeat
baseline,Cuedts,1,107321,bas_cue_run1_107321,1B,o,c,Con,l,2,2,,Switch,red,black,black,NoInc,2000,1,942,2,2,882977,887483,888425,154672,54,728.305,732.811,733.753,28.408,274.405,520.415,246.018,492.015,738.011,ConSwitch
baseline,Cuedts,2,107321,bas_cue_run2_107321,H5,o,c,Con,l,2,2,,,red,black,black,NoInc,4400,1,689,2,2,92617,97123,97812,61507,1,31.11,35.616,36.305,28.416,274.413,520.409,246.027,492.023,738.02,trial1
baseline,Cuedts,2,107321,bas_cue_run2_107321,3E,o,v,InCon,n,2,1,,Switch,red,black,green,Inc,3200,1,1312,2,2,105817,110323,111635,61507,2,44.31,48.816,50.128,28.416,274.413,520.409,246.027,492.023,738.02,InConSwitch
baseline,Cuedts,2,107321,bas_cue_run2_107321,2A,e,v,Con,n,1,1,,Repeat,red,black,black,NoInc,4400,1,734,1,1,117816,122323,123057,61507,3,56.309,60.816,61.55,28.416,274.413,520.409,246.027,492.023,738.02,ConRepeat
baseline,Cuedts,2,107321,bas_cue_run2_107321,1B,o,c,Con,l,2,2,,Switch,red,black,black,NoInc,3200,1,1005,2,2,131016,135523,136528,61507,4,69.509,74.016,75.021,28.416,274.413,520.409,246.027,492.023,738.02,ConSwitch
baseline,Cuedts,2,107321,bas_cue_run2_107321,E3,o,v,InCon,n,2,1,,Switch,red,black,green,Inc,4400,1,1468,2,2,143016,147523,148991,61507,5,81.509,86.016,87.484,28.416,274.413,520.409,246.027,492.023,738.02,InConSwitch
baseline,Cuedts,2,107321,bas_cue_run2_107321,B1,o,c,Con,l,2,2,,Switch,red,black,black,NoInc,2000,1,931,2,2,156216,160722,161653,61507,6,94.709,99.215,100.146,28.416,274.413,520.409,246.027,492.023,738.02,ConSwitch
baseline,Cuedts,2,107321,bas_cue_run2_107321,2A,e,v,Con,l,1,1,,Repeat,red,black,black,NoInc,2000,1,1232,1,1,167016,171522,172754,61507,7,105.509,110.015,111.247,28.416,274.413,520.409,246.027,492.023,738.02,ConRepeat
baseline,Cuedts,2,107321,bas_cue_run2_107321,D4,e,c,InCon,n,1,2,,Switch,red,black,green,Inc,2000,1,985,1,1,177816,182322,183307,61507,8,116.309,120.815,121.8,28.416,274.413,520.409,246.027,492.023,738.02,InConSwitch
baseline,Cuedts,2,107321,bas_cue_run2_107321,A2,e,v,Con,n,1,1,,Repeat,red,black,black,NoInc,3200,1,744,1,1,188615,193122,193866,61507,9,127.108,131.615,132.359,28.416,274.413,520.409,246.027,492.023,738.02,ConRepeat
baseline,Cuedts,2,107321,bas_cue_run2_107321,4D,e,c,InCon,l,1,2,,Switch,red,black,green,Inc,3200,1,2687,2,2,200615,205122,207809,61507,10,139.108,143.615,146.302,28.416,274.413,520.409,246.027,492.023,738.02,InConSwitch
baseline,Cuedts,2,107321,bas_cue_run2_107321,B2,e,c,InCon,l,1,2,,Repeat,red,black,black,NoInc,4400,1,1510,2,2,212615,217122,218632,61507,11,151.108,155.615,157.125,28.416,274.413,520.409,246.027,492.023,738.02,InConRepeat
baseline,Cuedts,2,107321,bas_cue_run2_107321,6I,e,v,Con,l,1,1,,Repeat,red,black,green,Inc,4400,1,1305,1,1,225815,230321,231626,61507,12,164.308,168.814,170.119,28.416,274.413,520.409,246.027,492.023,738.02,ConRepeat
baseline,Cuedts,2,107321,bas_cue_run2_107321,1B,o,c,Con,n,2,2,,Switch,red,black,black,NoInc,4400,1,608,2,2,239015,243521,244129,61507,13,177.508,182.014,182.622,28.416,274.413,520.409,246.027,492.023,738.02,ConSwitch
baseline,Cuedts,2,107321,bas_cue_run2_107321,5H,o,c,Con,n,2,2,,Repeat,red,black,black,NoInc,2000,1,1376,2,2,252214,256721,258097,61507,14,190.707,195.214,196.59,28.416,274.413,520.409,246.027,492.023,738.02,ConRepeat
baseline,Cuedts,2,107321,bas_cue_run2_107321,E3,o,v,InCon,l,2,1,,Switch,red,black,green,Inc,2000,1,675,1,1,263014,267521,268196,61507,15,201.507,206.014,206.689,28.416,274.413,520.409,246.027,492.023,738.02,InConSwitch
baseline,Cuedts,2,107321,bas_cue_run2_107321,A2,e,v,Con,l,1,1,,Repeat,red,black,black,NoInc,3200,1,616,1,1,273814,278321,278937,61507,16,212.307,216.814,217.43,28.416,274.413,520.409,246.027,492.023,738.02,ConRepeat
baseline,Cuedts,2,107321,bas_cue_run2_107321,B1,o,c,Con,n,2,2,,Switch,red,black,black,NoInc,3200,1,867,2,2,285814,290321,291188,61507,17,224.307,228.814,229.681,28.416,274.413,520.409,246.027,492.023,738.02,ConSwitch
baseline,Cuedts,2,107321,bas_cue_run2_107321,6I,e,v,Con,n,1,1,,Repeat,red,black,black,NoInc,2000,1,2076,1,1,297814,302320,304396,61507,18,236.307,240.813,242.889,28.416,274.413,520.409,246.027,492.023,738.02,ConRepeat
baseline,Cuedts,2,107321,bas_cue_run2_107321,5H,o,c,Con,l,2,2,,,red,black,green,Inc,2000,1,835,2,2,338613,343120,343955,61507,19,277.106,281.613,282.448,28.416,274.413,520.409,246.027,492.023,738.02,trial1
baseline,Cuedts,2,107321,bas_cue_run2_107321,H5,o,c,Con,l,2,2,,Repeat,red,black,black,NoInc,3200,1,2105,2,2,349413,353920,356025,61507,20,287.906,292.413,294.518,28.416,274.413,520.409,246.027,492.023,738.02,ConRepeat
baseline,Cuedts,2,107321,bas_cue_run2_107321,B1,o,c,Con,n,2,2,,Switch,red,black,black,NoInc,4400,1,922,2,2,361413,365920,366842,61507,21,299.906,304.413,305.335,28.416,274.413,520.409,246.027,492.023,738.02,ConSwitch
baseline,Cuedts,2,107321,bas_cue_run2_107321,4D,e,c,InCon,n,1,2,,Repeat,red,black,green,Inc,2000,1,879,1,1,374613,379119,379998,61507,22,313.106,317.612,318.491,28.416,274.413,520.409,246.027,492.023,738.02,InConRepeat
baseline,Cuedts,2,107321,bas_cue_run2_107321,2A,e,v,Con,l,1,1,,Switch,red,black,black,NoInc,4400,1,1210,1,1,385413,389919,391129,61507,23,323.906,328.412,329.622,28.416,274.413,520.409,246.027,492.023,738.02,ConSwitch
baseline,Cuedts,2,107321,bas_cue_run2_107321,A2,e,v,Con,n,1,1,,Switch,red,black,black,NoInc,3200,1,586,1,1,398626,403119,403705,61507,24,337.119,341.612,342.198,28.416,274.413,520.409,246.027,492.023,738.02,ConSwitch
baseline,Cuedts,2,107321,bas_cue_run2_107321,D4,e,c,InCon,l,1,2,,Switch,red,black,green,Inc,2000,1,1435,2,2,410626,415119,416554,61507,25,349.119,353.612,355.047,28.416,274.413,520.409,246.027,492.023,738.02,InConSwitch
baseline,Cuedts,2,107321,bas_cue_run2_107321,3E,o,v,InCon,l,2,1,,Repeat,red,black,green,Inc,4400,1,1418,1,1,421425,425919,427337,61507,26,359.918,364.412,365.83,28.416,274.413,520.409,246.027,492.023,738.02,InConRepeat
baseline,Cuedts,2,107321,bas_cue_run2_107321,2A,e,v,Con,n,1,1,,Switch,red,black,black,NoInc,3200,1,996,1,1,434625,439118,440114,61507,27,373.118,377.611,378.607,28.416,274.413,520.409,246.027,492.023,738.02,ConSwitch
baseline,Cuedts,2,107321,bas_cue_run2_107321,1A,o,v,InCon,n,2,1,,Repeat,red,black,black,NoInc,2000,1,668,2,2,446625,451118,451786,61507,28,385.118,389.611,390.279,28.416,274.413,520.409,246.027,492.023,738.02,InConRepeat
baseline,Cuedts,2,107321,bas_cue_run2_107321,B1,o,c,Con,l,2,2,,Switch,red,black,black,NoInc,3200,1,2086,2,2,457425,461918,464004,61507,29,395.918,400.411,402.497,28.416,274.413,520.409,246.027,492.023,738.02,ConSwitch
baseline,Cuedts,2,107321,bas_cue_run2_107321,I6,e,v,Con,n,1,1,,Switch,red,black,black,NoInc,4400,1,1098,1,1,469425,473918,475016,61507,30,407.918,412.411,413.509,28.416,274.413,520.409,246.027,492.023,738.02,ConSwitch
baseline,Cuedts,2,107321,bas_cue_run2_107321,A2,e,v,Con,l,1,1,,Switch,red,black,black,NoInc,3200,1,606,1,1,482625,487118,487724,61507,31,421.118,425.611,426.217,28.416,274.413,520.409,246.027,492.023,738.02,ConSwitch
baseline,Cuedts,2,107321,bas_cue_run2_107321,I6,e,v,Con,n,1,1,,Switch,red,black,green,Inc,3200,1,918,1,1,494624,499118,500036,61507,32,433.117,437.611,438.529,28.416,274.413,520.409,246.027,492.023,738.02,ConSwitch
baseline,Cuedts,2,107321,bas_cue_run2_107321,1B,o,c,Con,l,2,2,,Switch,red,black,black,NoInc,2000,1,1947,2,2,506624,511117,513064,61507,33,445.117,449.61,451.557,28.416,274.413,520.409,246.027,492.023,738.02,ConSwitch
baseline,Cuedts,2,107321,bas_cue_run2_107321,I6,e,v,Con,l,1,1,,Repeat,red,black,black,NoInc,4400,1,1121,1,1,517424,521917,523038,61507,34,455.917,460.41,461.531,28.416,274.413,520.409,246.027,492.023,738.02,ConRepeat
baseline,Cuedts,2,107321,bas_cue_run2_107321,D4,e,c,InCon,n,1,2,,Switch,red,black,green,Inc,2000,1,859,1,1,530624,535117,535976,61507,35,469.117,473.61,474.469,28.416,274.413,520.409,246.027,492.023,738.02,InConSwitch
baseline,Cuedts,2,107321,bas_cue_run2_107321,2B,e,c,InCon,n,1,2,,Repeat,red,black,black,NoInc,4400,1,613,1,1,541424,545917,546530,61507,36,479.917,484.41,485.023,28.416,274.413,520.409,246.027,492.023,738.02,InConRepeat
baseline,Cuedts,2,107321,bas_cue_run2_107321,3E,o,v,InCon,n,2,1,,,red,black,green,Inc,4400,0,0,,2,584623,589116,0,61507,37,523.116,527.609,-61.507,28.416,274.413,520.409,246.027,492.023,738.02,trial1
baseline,Cuedts,2,107321,bas_cue_run2_107321,2A,e,v,Con,n,1,1,,Repeat,red,black,black,NoInc,3200,1,1634,1,1,597823,602316,603950,61507,38,536.316,540.809,542.443,28.416,274.413,520.409,246.027,492.023,738.02,ConRepeat
baseline,Cuedts,2,107321,bas_cue_run2_107321,H5,o,c,Con,l,2,2,,Switch,red,black,black,NoInc,2000,1,1128,2,2,609823,614316,615444,61507,39,548.316,552.809,553.937,28.416,274.413,520.409,246.027,492.023,738.02,ConSwitch
baseline,Cuedts,2,107321,bas_cue_run2_107321,H5,o,c,Con,n,2,2,,Switch,red,black,green,Inc,2000,1,842,2,2,620623,625116,625958,61507,40,559.116,563.609,564.451,28.416,274.413,520.409,246.027,492.023,738.02,ConSwitch
baseline,Cuedts,2,107321,bas_cue_run2_107321,A2,e,v,Con,n,1,1,,Repeat,red,black,black,NoInc,4400,1,766,1,1,631422,635916,636682,61507,41,569.915,574.409,575.175,28.416,274.413,520.409,246.027,492.023,738.02,ConRepeat
baseline,Cuedts,2,107321,bas_cue_run2_107321,6I,e,v,Con,n,1,1,,Repeat,red,black,black,NoInc,3200,1,1111,1,1,644622,649115,650226,61507,42,583.115,587.608,588.719,28.416,274.413,520.409,246.027,492.023,738.02,ConRepeat
baseline,Cuedts,2,107321,bas_cue_run2_107321,A1,o,v,InCon,l,2,1,,Switch,red,black,black,NoInc,3200,1,1225,1,1,656622,661115,662340,61507,43,595.115,599.608,600.833,28.416,274.413,520.409,246.027,492.023,738.02,InConSwitch
baseline,Cuedts,2,107321,bas_cue_run2_107321,1B,o,c,Con,l,2,2,,Repeat,red,black,black,NoInc,4400,1,1212,2,2,668622,673115,674327,61507,44,607.115,611.608,612.82,28.416,274.413,520.409,246.027,492.023,738.02,ConRepeat
baseline,Cuedts,2,107321,bas_cue_run2_107321,B1,o,c,Con,l,2,2,,Repeat,red,black,black,NoInc,2000,1,1613,2,2,681822,686315,687928,61507,45,620.315,624.808,626.421,28.416,274.413,520.409,246.027,492.023,738.02,ConRepeat
baseline,Cuedts,2,107321,bas_cue_run2_107321,1B,o,c,Con,n,2,2,,Switch,red,black,black,NoInc,3200,1,763,2,2,692621,697115,697878,61507,46,631.114,635.608,636.371,28.416,274.413,520.409,246.027,492.023,738.02,ConSwitch
baseline,Cuedts,2,107321,bas_cue_run2_107321,D4,e,c,InCon,l,1,2,,Switch,red,black,green,Inc,3200,1,887,2,2,704621,709115,710002,61507,47,643.114,647.608,648.495,28.416,274.413,520.409,246.027,492.023,738.02,InConSwitch
baseline,Cuedts,2,107321,bas_cue_run2_107321,5H,o,c,Con,n,2,2,,Switch,red,black,black,NoInc,2000,1,717,2,2,716621,721114,721831,61507,48,655.114,659.607,660.324,28.416,274.413,520.409,246.027,492.023,738.02,ConSwitch
baseline,Cuedts,2,107321,bas_cue_run2_107321,E3,o,v,InCon,l,2,1,,Switch,red,black,green,Inc,3200,1,1118,1,1,727421,731914,733032,61507,49,665.914,670.407,671.525,28.416,274.413,520.409,246.027,492.023,738.02,InConSwitch
baseline,Cuedts,2,107321,bas_cue_run2_107321,2B,e,c,InCon,l,1,2,,Repeat,red,black,black,NoInc,4400,1,1458,2,2,739421,743914,745372,61507,50,677.914,682.407,683.865,28.416,274.413,520.409,246.027,492.023,738.02,InConRepeat
baseline,Cuedts,2,107321,bas_cue_run2_107321,A2,e,v,Con,l,1,1,,Repeat,red,black,black,NoInc,2000,1,617,1,1,752621,757114,757731,61507,51,691.114,695.607,696.224,28.416,274.413,520.409,246.027,492.023,738.02,ConRepeat
baseline,Cuedts,2,107321,bas_cue_run2_107321,4D,e,c,InCon,l,1,2,,Repeat,red,black,green,Inc,2000,1,839,2,2,763420,767914,768753,61507,52,701.913,706.407,707.246,28.416,274.413,520.409,246.027,492.023,738.02,InConRepeat
baseline,Cuedts,2,107321,bas_cue_run2_107321,4D,e,c,InCon,n,1,2,,Switch,red,black,green,Inc,4400,1,1172,1,1,774220,778714,779886,61507,53,712.713,717.207,718.379,28.416,274.413,520.409,246.027,492.023,738.02,InConSwitch
baseline,Cuedts,2,107321,bas_cue_run2_107321,B1,o,c,Con,n,2,2,,Repeat,red,black,black,NoInc,4400,1,963,2,2,787420,791913,792876,61507,54,725.913,730.406,731.369,28.416,274.413,520.409,246.027,492.023,738.02,ConRepeat
baseline,Cuedts,1,115825,bas_cue_run1_115825,A2,e,v,Con,n,1,1,,,red,black,black,NoInc,4400,0,2173,2,1,144446,148945,151118,113319,1,31.127,35.626,37.799,28.427,274.421,520.416,246.026,492.037,738.031,trial1
baseline,Cuedts,1,115825,bas_cue_run1_115825,D4,e,c,InCon,l,1,2,,Switch,red,black,green,Inc,2000,1,2351,2,2,157643,162143,164494,113319,2,44.324,48.824,51.175,28.427,274.421,520.416,246.026,492.037,738.031,InConSwitch
baseline,Cuedts,1,115825,bas_cue_run1_115825,D4,e,c,InCon,n,1,2,,Switch,red,black,green,Inc,4400,0,2118,2,1,168442,172941,175059,113319,3,55.123,59.622,61.74,28.427,274.421,520.416,246.026,492.037,738.031,InConSwitch
baseline,Cuedts,1,115825,bas_cue_run1_115825,B1,o,c,Con,l,2,2,,Switch,red,black,black,NoInc,2000,0,1325,1,2,181640,186139,187464,113319,4,68.321,72.82,74.145,28.427,274.421,520.416,246.026,492.037,738.031,ConSwitch
baseline,Cuedts,1,115825,bas_cue_run1_115825,B1,o,c,Con,n,2,2,,Switch,red,black,black,NoInc,3200,0,2423,1,2,192438,196937,199360,113319,5,79.119,83.618,86.041,28.427,274.421,520.416,246.026,492.037,738.031,ConSwitch
baseline,Cuedts,1,115825,bas_cue_run1_115825,4D,e,c,InCon,n,1,2,,Repeat,red,black,green,Inc,4400,0,2233,2,1,204436,208935,211168,113319,6,91.117,95.616,97.849,28.427,274.421,520.416,246.026,492.037,738.031,InConRepeat
baseline,Cuedts,1,115825,bas_cue_run1_115825,1B,o,c,Con,n,2,2,,Repeat,red,black,black,NoInc,2000,0,1804,1,2,217634,222133,223937,113319,7,104.315,108.814,110.618,28.427,274.421,520.416,246.026,492.037,738.031,ConRepeat
baseline,Cuedts,1,115825,bas_cue_run1_115825,6I,e,v,Con,n,1,1,,Repeat,red,black,green,Inc,3200,0,1757,2,1,228449,232948,234705,113319,8,115.13,119.629,121.386,28.427,274.421,520.416,246.026,492.037,738.031,ConRepeat
baseline,Cuedts,1,115825,bas_cue_run1_115825,H5,o,c,Con,l,2,2,,Switch,red,black,black,NoInc,3200,0,1039,1,2,240447,244946,245985,113319,9,127.128,131.627,132.666,28.427,274.421,520.416,246.026,492.037,738.031,ConSwitch
baseline,Cuedts,1,115825,bas_cue_run1_115825,1A,o,v,InCon,l,2,1,,Repeat,red,black,black,NoInc,4400,0,1986,2,1,252445,256944,258930,113319,10,139.126,143.625,145.611,28.427,274.421,520.416,246.026,492.037,738.031,InConRepeat
baseline,Cuedts,1,115825,bas_cue_run1_115825,5H,o,c,Con,l,2,2,,Repeat,red,black,black,NoInc,3200,0,1566,1,2,265643,270142,271708,113319,11,152.324,156.823,158.389,28.427,274.421,520.416,246.026,492.037,738.031,ConRepeat
baseline,Cuedts,1,115825,bas_cue_run1_115825,E3,o,v,InCon,l,2,1,,Repeat,red,black,green,Inc,2000,1,1547,1,1,277641,282140,283687,113319,12,164.322,168.821,170.368,28.427,274.421,520.416,246.026,492.037,738.031,InConRepeat
baseline,Cuedts,1,115825,bas_cue_run1_115825,I6,e,v,Con,n,1,1,,Switch,red,black,black,NoInc,3200,1,2097,1,1,288439,292939,295036,113319,13,175.12,179.62,181.717,28.427,274.421,520.416,246.026,492.037,738.031,ConSwitch
baseline,Cuedts,1,115825,bas_cue_run1_115825,I6,e,v,Con,l,1,1,,Switch,red,black,green,Inc,4400,0,1684,2,1,300438,304937,306621,113319,14,187.119,191.618,193.302,28.427,274.421,520.416,246.026,492.037,738.031,ConSwitch
baseline,Cuedts,1,115825,bas_cue_run1_115825,B2,e,c,InCon,n,1,2,,Switch,red,black,black,NoInc,4400,1,875,1,1,313635,318135,319010,113319,15,200.316,204.816,205.691,28.427,274.421,520.416,246.026,492.037,738.031,InConSwitch
baseline,Cuedts,1,115825,bas_cue_run1_115825,A2,e,v,Con,l,1,1,,Switch,red,black,black,NoInc,2000,0,1693,2,1,326833,331349,333042,113319,16,213.514,218.03,219.723,28.427,274.421,520.416,246.026,492.037,738.031,ConSwitch
baseline,Cuedts,1,115825,bas_cue_run1_115825,1B,o,c,Con,l,2,2,,Repeat,red,black,black,NoInc,2000,0,1922,1,2,337648,342148,344070,113319,17,224.329,228.829,230.751,28.427,274.421,520.416,246.026,492.037,738.031,ConRepeat
baseline,Cuedts,1,115825,bas_cue_run1_115825,2A,e,v,Con,n,1,1,,Switch,red,black,black,NoInc,3200,1,1322,1,1,348447,352946,354268,113319,18,235.128,239.627,240.949,28.427,274.421,520.416,246.026,492.037,738.031,ConSwitch
baseline,Cuedts,1,115825,bas_cue_run1_115825,2A,e,v,Con,l,1,1,,,red,black,black,NoInc,2000,1,1557,1,1,390440,394939,396496,113319,19,277.121,281.62,283.177,28.427,274.421,520.416,246.026,492.037,738.031,trial1
baseline,Cuedts,1,115825,bas_cue_run1_115825,E3,o,v,InCon,n,2,1,,Switch,red,black,green,Inc,3200,1,1409,2,2,401238,405737,407146,113319,20,287.919,292.418,293.827,28.427,274.421,520.416,246.026,492.037,738.031,InConSwitch
baseline,Cuedts,1,115825,bas_cue_run1_115825,5H,o,c,Con,n,2,2,,Repeat,red,black,green,Inc,4400,1,891,2,2,413236,417736,418627,113319,21,299.917,304.417,305.308,28.427,274.421,520.416,246.026,492.037,738.031,ConRepeat
baseline,Cuedts,1,115825,bas_cue_run1_115825,2B,e,c,InCon,l,1,2,,Switch,red,black,black,NoInc,4400,0,747,1,2,426434,430934,431681,113319,22,313.115,317.615,318.362,28.427,274.421,520.416,246.026,492.037,738.031,InConSwitch
baseline,Cuedts,1,115825,bas_cue_run1_115825,3E,o,v,InCon,l,2,1,,Repeat,red,black,green,Inc,2000,1,761,1,1,439649,444148,444909,113319,23,326.33,330.829,331.59,28.427,274.421,520.416,246.026,492.037,738.031,InConRepeat
baseline,Cuedts,1,115825,bas_cue_run1_115825,5H,o,c,Con,l,2,2,,Repeat,red,black,black,NoInc,4400,1,1345,2,2,450447,454946,456291,113319,24,337.128,341.627,342.972,28.427,274.421,520.416,246.026,492.037,738.031,ConRepeat
baseline,Cuedts,1,115825,bas_cue_run1_115825,I6,e,v,Con,l,1,1,,Repeat,red,black,black,NoInc,3200,1,1626,1,1,463645,468144,469770,113319,25,350.326,354.825,356.451,28.427,274.421,520.416,246.026,492.037,738.031,ConRepeat
baseline,Cuedts,1,115825,bas_cue_run1_115825,2A,e,v,Con,l,1,1,,Repeat,red,black,black,NoInc,3200,1,1131,1,1,475643,480142,481273,113319,26,362.324,366.823,367.954,28.427,274.421,520.416,246.026,492.037,738.031,ConRepeat
baseline,Cuedts,1,115825,bas_cue_run1_115825,6I,e,v,Con,n,1,1,,Switch,red,black,black,NoInc,2000,0,1883,2,1,487641,492140,494023,113319,27,374.322,378.821,380.704,28.427,274.421,520.416,246.026,492.037,738.031,ConSwitch
baseline,Cuedts,1,115825,bas_cue_run1_115825,2A,e,v,Con,n,1,1,,Repeat,red,black,black,NoInc,3200,1,1639,1,1,498439,502939,504578,113319,28,385.12,389.62,391.259,28.427,274.421,520.416,246.026,492.037,738.031,ConRepeat
baseline,Cuedts,1,115825,bas_cue_run1_115825,A2,e,v,Con,n,1,1,,Repeat,red,black,black,NoInc,4400,1,971,1,1,510438,514937,515908,113319,29,397.119,401.618,402.589,28.427,274.421,520.416,246.026,492.037,738.031,ConRepeat
baseline,Cuedts,1,115825,bas_cue_run1_115825,D4,e,c,InCon,l,1,2,,Switch,red,black,green,Inc,2000,1,1747,2,2,523635,528135,529882,113319,30,410.316,414.816,416.563,28.427,274.421,520.416,246.026,492.037,738.031,InConSwitch
baseline,Cuedts,1,115825,bas_cue_run1_115825,A1,o,v,InCon,n,2,1,,Switch,red,black,black,NoInc,4400,1,1374,2,2,534434,538933,540307,113319,31,421.115,425.614,426.988,28.427,274.421,520.416,246.026,492.037,738.031,InConSwitch
baseline,Cuedts,1,115825,bas_cue_run1_115825,1B,o,c,Con,n,2,2,,Repeat,red,black,black,NoInc,2000,0,1580,1,2,547648,552148,553728,113319,32,434.329,438.829,440.409,28.427,274.421,520.416,246.026,492.037,738.031,ConRepeat
baseline,Cuedts,1,115825,bas_cue_run1_115825,1B,o,c,Con,l,2,2,,Switch,red,black,black,NoInc,3200,1,1909,2,2,558447,562946,564855,113319,33,445.128,449.627,451.536,28.427,274.421,520.416,246.026,492.037,738.031,ConSwitch
baseline,Cuedts,1,115825,bas_cue_run1_115825,E3,o,v,InCon,n,2,1,,Switch,red,black,green,Inc,3200,1,915,2,2,570445,574944,575859,113319,34,457.126,461.625,462.54,28.427,274.421,520.416,246.026,492.037,738.031,InConSwitch
baseline,Cuedts,1,115825,bas_cue_run1_115825,B1,o,c,Con,l,2,2,,Switch,red,black,black,NoInc,4400,0,751,1,2,582443,586942,587693,113319,35,469.124,473.623,474.374,28.427,274.421,520.416,246.026,492.037,738.031,ConSwitch
baseline,Cuedts,1,115825,bas_cue_run1_115825,3E,o,v,InCon,n,2,1,,Switch,red,black,green,Inc,2000,1,895,2,2,595641,600140,601035,113319,36,482.322,486.821,487.716,28.427,274.421,520.416,246.026,492.037,738.031,InConSwitch
baseline,Cuedts,1,115825,bas_cue_run1_115825,H5,o,c,Con,n,2,2,,,red,black,black,NoInc,2000,1,1262,2,2,636434,640934,642196,113319,37,523.115,527.615,528.877,28.427,274.421,520.416,246.026,492.037,738.031,trial1
baseline,Cuedts,1,115825,bas_cue_run1_115825,H5,o,c,Con,l,2,2,,Switch,red,black,green,Inc,3200,1,963,2,2,647249,651748,652711,113319,38,533.93,538.429,539.392,28.427,274.421,520.416,246.026,492.037,738.031,ConSwitch
baseline,Cuedts,1,115825,bas_cue_run1_115825,B1,o,c,Con,l,2,2,,Repeat,red,black,black,NoInc,4400,0,1534,1,2,659247,663747,665281,113319,39,545.928,550.428,551.962,28.427,274.421,520.416,246.026,492.037,738.031,ConRepeat
baseline,Cuedts,1,115825,bas_cue_run1_115825,4D,e,c,InCon,n,1,2,,Switch,red,black,green,Inc,4400,0,974,2,1,672445,676944,677918,113319,40,559.126,563.625,564.599,28.427,274.421,520.416,246.026,492.037,738.031,InConSwitch
baseline,Cuedts,1,115825,bas_cue_run1_115825,1B,o,c,Con,n,2,2,,Repeat,red,black,black,NoInc,2000,1,1679,2,2,685643,690142,691821,113319,41,572.324,576.823,578.502,28.427,274.421,520.416,246.026,492.037,738.031,ConRepeat
baseline,Cuedts,1,115825,bas_cue_run1_115825,E3,o,v,InCon,l,2,1,,Switch,red,black,green,Inc,3200,1,1347,1,1,696441,700941,702288,113319,42,583.122,587.622,588.969,28.427,274.421,520.416,246.026,492.037,738.031,InConSwitch
baseline,Cuedts,1,115825,bas_cue_run1_115825,6I,e,v,Con,n,1,1,,Switch,red,black,black,NoInc,4400,0,1546,2,1,708439,712939,714485,113319,43,595.12,599.62,601.166,28.427,274.421,520.416,246.026,492.037,738.031,ConSwitch
baseline,Cuedts,1,115825,bas_cue_run1_115825,6I,e,v,Con,l,1,1,,Switch,red,black,black,NoInc,3200,1,1735,1,1,721637,726137,727872,113319,44,608.318,612.818,614.553,28.427,274.421,520.416,246.026,492.037,738.031,ConSwitch
baseline,Cuedts,1,115825,bas_cue_run1_115825,1A,o,v,InCon,n,2,1,,Switch,red,black,black,NoInc,2000,1,1591,2,2,733636,738135,739726,113319,45,620.317,624.816,626.407,28.427,274.421,520.416,246.026,492.037,738.031,InConSwitch
baseline,Cuedts,1,115825,bas_cue_run1_115825,3E,o,v,InCon,n,2,1,,Repeat,red,black,green,Inc,4400,1,1041,2,2,744434,748933,749974,113319,46,631.115,635.614,636.655,28.427,274.421,520.416,246.026,492.037,738.031,InConRepeat
baseline,Cuedts,1,115825,bas_cue_run1_115825,2A,e,v,Con,n,1,1,,Repeat,red,black,black,NoInc,3200,1,932,1,1,757648,762148,763080,113319,47,644.329,648.829,649.761,28.427,274.421,520.416,246.026,492.037,738.031,ConRepeat
baseline,Cuedts,1,115825,bas_cue_run1_115825,4D,e,c,InCon,l,1,2,,Switch,red,black,green,Inc,2000,1,1577,2,2,769646,774146,775723,113319,48,656.327,660.827,662.404,28.427,274.421,520.416,246.026,492.037,738.031,InConSwitch
baseline,Cuedts,1,115825,bas_cue_run1_115825,B1,o,c,Con,n,2,2,,Switch,red,black,black,NoInc,3200,1,1531,2,2,780445,784944,786475,113319,49,667.126,671.625,673.156,28.427,274.421,520.416,246.026,492.037,738.031,ConSwitch
baseline,Cuedts,1,115825,bas_cue_run1_115825,A2,e,v,Con,l,1,1,,Switch,red,black,black,NoInc,4400,1,1599,1,1,792443,796942,798541,113319,50,679.124,683.623,685.222,28.427,274.421,520.416,246.026,492.037,738.031,ConSwitch
baseline,Cuedts,1,115825,bas_cue_run1_115825,A2,e,v,Con,n,1,1,,Switch,red,black,black,NoInc,2000,1,1167,1,1,805641,810140,811307,113319,51,692.322,696.821,697.988,28.427,274.421,520.416,246.026,492.037,738.031,ConSwitch
baseline,Cuedts,1,115825,bas_cue_run1_115825,2A,e,v,Con,l,1,1,,Switch,red,black,black,NoInc,3200,1,1548,1,1,816439,820938,822486,113319,52,703.12,707.619,709.167,28.427,274.421,520.416,246.026,492.037,738.031,ConSwitch
baseline,Cuedts,1,115825,bas_cue_run1_115825,1B,o,c,Con,l,2,2,,Repeat,red,black,black,NoInc,4400,1,1700,2,2,828437,832936,834636,113319,53,715.118,719.617,721.317,28.427,274.421,520.416,246.026,492.037,738.031,ConRepeat
baseline,Cuedts,1,115825,bas_cue_run1_115825,3E,o,v,InCon,l,2,1,,Repeat,red,black,green,Inc,2000,1,1039,1,1,841635,846134,847173,113319,54,728.316,732.815,733.854,28.427,274.421,520.416,246.026,492.037,738.031,InConRepeat
baseline,Cuedts,2,115825,bas_cue_run2_115825,A2,e,v,Con,l,1,1,,,red,black,black,NoInc,2000,1,1328,1,1,72990,77490,78818,41876,1,31.114,35.614,36.942,28.415,274.409,520.42,246.014,492.025,738.019,trial1
baseline,Cuedts,2,115825,bas_cue_run2_115825,E3,o,v,InCon,l,2,1,,Repeat,red,black,green,Inc,4400,0,1276,2,1,83789,88288,89564,41876,2,41.913,46.412,47.688,28.415,274.409,520.42,246.014,492.025,738.019,InConRepeat
baseline,Cuedts,2,115825,bas_cue_run2_115825,A2,e,v,Con,n,1,1,,Switch,red,black,black,NoInc,4400,1,1184,1,1,96987,101486,102670,41876,3,55.111,59.61,60.794,28.415,274.409,520.42,246.014,492.025,738.019,ConSwitch
baseline,Cuedts,2,115825,bas_cue_run2_115825,B1,o,c,Con,l,2,2,,Switch,red,black,black,NoInc,3200,0,1553,1,2,110185,114684,116237,41876,4,68.309,72.808,74.361,28.415,274.409,520.42,246.014,492.025,738.019,ConSwitch
baseline,Cuedts,2,115825,bas_cue_run2_115825,6I,e,v,Con,n,1,1,,Switch,red,black,black,NoInc,3200,0,1586,2,1,122183,126682,128268,41876,5,80.307,84.806,86.392,28.415,274.409,520.42,246.014,492.025,738.019,ConSwitch
baseline,Cuedts,2,115825,bas_cue_run2_115825,B1,o,c,Con,n,2,2,,Repeat,red,black,black,NoInc,4400,0,1403,1,2,134181,138697,140100,41876,6,92.305,96.821,98.224,28.415,274.409,520.42,246.014,492.025,738.019,ConRepeat
baseline,Cuedts,2,115825,bas_cue_run2_115825,B2,e,c,InCon,l,1,2,,Switch,red,black,black,NoInc,3200,1,2018,2,2,147395,151895,153913,41876,7,105.519,110.019,112.037,28.415,274.409,520.42,246.014,492.025,738.019,InConSwitch
baseline,Cuedts,2,115825,bas_cue_run2_115825,D4,e,c,InCon,n,1,2,,Switch,red,black,green,Inc,2000,1,1615,1,1,159393,163893,165508,41876,8,117.517,122.017,123.632,28.415,274.409,520.42,246.014,492.025,738.019,InConSwitch
baseline,Cuedts,2,115825,bas_cue_run2_115825,3E,o,v,InCon,n,2,1,,Repeat,red,black,green,Inc,2000,1,1901,2,2,170192,174691,176592,41876,9,128.316,132.815,134.716,28.415,274.409,520.42,246.014,492.025,738.019,InConRepeat
baseline,Cuedts,2,115825,bas_cue_run2_115825,1B,o,c,Con,n,2,2,,Repeat,red,black,black,NoInc,4400,0,1211,1,2,180990,185489,186700,41876,10,139.114,143.613,144.824,28.415,274.409,520.42,246.014,492.025,738.019,ConRepeat
baseline,Cuedts,2,115825,bas_cue_run2_115825,2A,e,v,Con,l,1,1,,Switch,red,black,black,NoInc,4400,1,664,1,1,194188,198687,199351,41876,11,152.312,156.811,157.475,28.415,274.409,520.42,246.014,492.025,738.019,ConSwitch
baseline,Cuedts,2,115825,bas_cue_run2_115825,E3,o,v,InCon,n,2,1,,Switch,red,black,green,Inc,2000,1,916,2,2,207386,211885,212801,41876,12,165.51,170.009,170.925,28.415,274.409,520.42,246.014,492.025,738.019,InConSwitch
baseline,Cuedts,2,115825,bas_cue_run2_115825,4D,e,c,InCon,l,1,2,,Switch,red,black,green,Inc,2000,0,1657,1,2,218184,222683,224340,41876,13,176.308,180.807,182.464,28.415,274.409,520.42,246.014,492.025,738.019,InConSwitch
baseline,Cuedts,2,115825,bas_cue_run2_115825,6I,e,v,Con,l,1,1,,Repeat,red,black,green,Inc,3200,1,1528,1,1,228982,233482,235010,41876,14,187.106,191.606,193.134,28.415,274.409,520.42,246.014,492.025,738.019,ConRepeat
baseline,Cuedts,2,115825,bas_cue_run2_115825,1B,o,c,Con,l,2,2,,Repeat,red,black,black,NoInc,3200,1,1393,2,2,240997,245496,246889,41876,15,199.121,203.62,205.013,28.415,274.409,520.42,246.014,492.025,738.019,ConRepeat
baseline,Cuedts,2,115825,bas_cue_run2_115825,5H,o,c,Con,n,2,2,,Switch,red,black,black,NoInc,4400,1,1534,2,2,252995,257495,259029,41876,16,211.119,215.619,217.153,28.415,274.409,520.42,246.014,492.025,738.019,ConSwitch
baseline,Cuedts,2,115825,bas_cue_run2_115825,2A,e,v,Con,n,1,1,,Repeat,red,black,black,NoInc,3200,1,1279,1,1,266193,270692,271971,41876,17,224.317,228.816,230.095,28.415,274.409,520.42,246.014,492.025,738.019,ConRepeat
baseline,Cuedts,2,115825,bas_cue_run2_115825,H5,o,c,Con,l,2,2,,Switch,red,black,black,NoInc,2000,0,1816,1,2,278191,282691,284507,41876,18,236.315,240.815,242.631,28.415,274.409,520.42,246.014,492.025,738.019,ConSwitch
baseline,Cuedts,2,115825,bas_cue_run2_115825,A2,e,v,Con,l,1,1,,,red,black,black,NoInc,4400,1,1671,1,1,318985,323484,325155,41876,19,277.109,281.608,283.279,28.415,274.409,520.42,246.014,492.025,738.019,trial1
baseline,Cuedts,2,115825,bas_cue_run2_115825,I6,e,v,Con,n,1,1,,Switch,red,black,green,Inc,2000,0,1084,2,1,332183,336682,337766,41876,20,290.307,294.806,295.89,28.415,274.409,520.42,246.014,492.025,738.019,ConSwitch
baseline,Cuedts,2,115825,bas_cue_run2_115825,1A,o,v,InCon,n,2,1,,Repeat,red,black,black,NoInc,3200,1,1200,2,2,342981,347497,348697,41876,21,301.105,305.621,306.821,28.415,274.409,520.42,246.014,492.025,738.019,InConRepeat
baseline,Cuedts,2,115825,bas_cue_run2_115825,B1,o,c,Con,n,2,2,,Repeat,red,black,black,NoInc,3200,1,1794,2,2,354996,359495,361289,41876,22,313.12,317.619,319.413,28.415,274.409,520.42,246.014,492.025,738.019,ConRepeat
baseline,Cuedts,2,115825,bas_cue_run2_115825,I6,e,v,Con,n,1,1,,Repeat,red,black,black,NoInc,4400,0,1206,2,1,366994,371493,372699,41876,23,325.118,329.617,330.823,28.415,274.409,520.42,246.014,492.025,738.019,ConRepeat
baseline,Cuedts,2,115825,bas_cue_run2_115825,I6,e,v,Con,l,1,1,,Switch,red,black,black,NoInc,3200,0,1564,2,1,380192,384691,386255,41876,24,338.316,342.815,344.379,28.415,274.409,520.42,246.014,492.025,738.019,ConSwitch
baseline,Cuedts,2,115825,bas_cue_run2_115825,2A,e,v,Con,n,1,1,,Switch,red,black,black,NoInc,2000,0,1656,2,1,392190,396689,398345,41876,25,350.314,354.813,356.469,28.415,274.409,520.42,246.014,492.025,738.019,ConSwitch
baseline,Cuedts,2,115825,bas_cue_run2_115825,3E,o,v,InCon,l,2,1,,Switch,red,black,green,Inc,4400,1,1867,1,1,402988,407487,409354,41876,26,361.112,365.611,367.478,28.415,274.409,520.42,246.014,492.025,738.019,InConSwitch
baseline,Cuedts,2,115825,bas_cue_run2_115825,D4,e,c,InCon,n,1,2,,Switch,red,black,green,Inc,2000,1,1405,1,1,416186,420685,422090,41876,27,374.31,378.809,380.214,28.415,274.409,520.42,246.014,492.025,738.019,InConSwitch
baseline,Cuedts,2,115825,bas_cue_run2_115825,B1,o,c,Con,l,2,2,,Switch,red,black,black,NoInc,3200,1,2106,2,2,426984,431484,433590,41876,28,385.108,389.608,391.714,28.415,274.409,520.42,246.014,492.025,738.019,ConSwitch
baseline,Cuedts,2,115825,bas_cue_run2_115825,2B,e,c,InCon,n,1,2,,Switch,red,black,black,NoInc,2000,1,2300,1,1,438982,443482,445782,41876,29,397.106,401.606,403.906,28.415,274.409,520.42,246.014,492.025,738.019,InConSwitch
baseline,Cuedts,2,115825,bas_cue_run2_115825,4D,e,c,InCon,n,1,2,,Repeat,red,black,green,Inc,4400,0,704,2,1,449781,454297,455001,41876,30,407.905,412.421,413.125,28.415,274.409,520.42,246.014,492.025,738.019,InConRepeat
baseline,Cuedts,2,115825,bas_cue_run2_115825,A2,e,v,Con,n,1,1,,Repeat,red,black,black,NoInc,2000,1,986,1,1,462995,467495,468481,41876,31,421.119,425.619,426.605,28.415,274.409,520.42,246.014,492.025,738.019,ConRepeat
baseline,Cuedts,2,115825,bas_cue_run2_115825,5H,o,c,Con,l,2,2,,Switch,red,black,green,Inc,3200,1,1821,2,2,473794,478293,480114,41876,32,431.918,436.417,438.238,28.415,274.409,520.42,246.014,492.025,738.019,ConSwitch
baseline,Cuedts,2,115825,bas_cue_run2_115825,D4,e,c,InCon,l,1,2,,Repeat,red,black,green,Inc,4400,0,1593,1,2,485792,490291,491884,41876,33,443.916,448.415,450.008,28.415,274.409,520.42,246.014,492.025,738.019,InConRepeat
baseline,Cuedts,2,115825,bas_cue_run2_115825,1B,o,c,Con,l,2,2,,Repeat,red,black,black,NoInc,2000,1,1861,2,2,498990,503489,505350,41876,34,457.114,461.613,463.474,28.415,274.409,520.42,246.014,492.025,738.019,ConRepeat
baseline,Cuedts,2,115825,bas_cue_run2_115825,2A,e,v,Con,l,1,1,,Repeat,red,black,black,NoInc,4400,1,1863,1,1,509788,514287,516150,41876,35,467.912,472.411,474.274,28.415,274.409,520.42,246.014,492.025,738.019,ConRepeat
baseline,Cuedts,2,115825,bas_cue_run2_115825,H5,o,c,Con,l,2,2,,Repeat,red,black,black,NoInc,3200,1,1923,2,2,522986,527485,529408,41876,36,481.11,485.609,487.532,28.415,274.409,520.42,246.014,492.025,738.019,ConRepeat
baseline,Cuedts,2,115825,bas_cue_run2_115825,B1,o,c,Con,l,2,2,,,red,black,black,NoInc,4400,1,2098,2,2,564996,569495,571593,41876,37,523.12,527.619,529.717,28.415,274.409,520.42,246.014,492.025,738.019,trial1
baseline,Cuedts,2,115825,bas_cue_run2_115825,1B,o,c,Con,n,2,2,,Switch,red,black,black,NoInc,3200,1,1475,2,2,578194,582693,584168,41876,38,536.318,540.817,542.292,28.415,274.409,520.42,246.014,492.025,738.019,ConSwitch
baseline,Cuedts,2,115825,bas_cue_run2_115825,2A,e,v,Con,n,1,1,,Repeat,red,black,black,NoInc,2000,1,1070,1,1,590192,594691,595761,41876,39,548.316,552.815,553.885,28.415,274.409,520.42,246.014,492.025,738.019,ConRepeat
baseline,Cuedts,2,115825,bas_cue_run2_115825,A2,e,v,Con,n,1,1,,Repeat,red,black,black,NoInc,3200,1,775,1,1,600990,605489,606264,41876,40,559.114,563.613,564.388,28.415,274.409,520.42,246.014,492.025,738.019,ConRepeat
baseline,Cuedts,2,115825,bas_cue_run2_115825,H5,o,c,Con,l,2,2,,Switch,red,black,black,NoInc,4400,1,945,2,2,612988,617488,618433,41876,41,571.112,575.612,576.557,28.415,274.409,520.42,246.014,492.025,738.019,ConSwitch
baseline,Cuedts,2,115825,bas_cue_run2_115825,H5,o,c,Con,n,2,2,,Switch,red,black,green,Inc,2000,1,813,2,2,626186,630685,631498,41876,42,584.31,588.809,589.622,28.415,274.409,520.42,246.014,492.025,738.019,ConSwitch
baseline,Cuedts,2,115825,bas_cue_run2_115825,6I,e,v,Con,n,1,1,,Repeat,red,black,black,NoInc,3200,0,1527,2,1,636984,641484,643011,41876,43,595.108,599.608,601.135,28.415,274.409,520.42,246.014,492.025,738.019,ConRepeat
baseline,Cuedts,2,115825,bas_cue_run2_115825,A1,o,v,InCon,l,2,1,,Switch,red,black,black,NoInc,4400,1,936,1,1,648983,653482,654418,41876,44,607.107,611.606,612.542,28.415,274.409,520.42,246.014,492.025,738.019,InConSwitch
baseline,Cuedts,2,115825,bas_cue_run2_115825,4D,e,c,InCon,n,1,2,,Switch,red,black,green,Inc,2000,1,1076,1,1,662197,666696,667772,41876,45,620.321,624.82,625.896,28.415,274.409,520.42,246.014,492.025,738.019,InConSwitch
baseline,Cuedts,2,115825,bas_cue_run2_115825,E3,o,v,InCon,l,2,1,,Switch,red,black,green,Inc,3200,0,1377,2,1,672995,677495,678872,41876,46,631.119,635.619,636.996,28.415,274.409,520.42,246.014,492.025,738.019,InConSwitch
baseline,Cuedts,2,115825,bas_cue_run2_115825,3E,o,v,InCon,n,2,1,,Switch,red,black,green,Inc,4400,1,526,2,2,684993,689493,690019,41876,47,643.117,647.617,648.143,28.415,274.409,520.42,246.014,492.025,738.019,InConSwitch
baseline,Cuedts,2,115825,bas_cue_run2_115825,4D,e,c,InCon,l,1,2,,Switch,red,black,green,Inc,2000,0,1530,1,2,698191,702691,704221,41876,48,656.315,660.815,662.345,28.415,274.409,520.42,246.014,492.025,738.019,InConSwitch
baseline,Cuedts,2,115825,bas_cue_run2_115825,B1,o,c,Con,n,2,2,,Switch,red,black,black,NoInc,4400,1,2211,2,2,708990,713489,715700,41876,49,667.114,671.613,673.824,28.415,274.409,520.42,246.014,492.025,738.019,ConSwitch
baseline,Cuedts,2,115825,bas_cue_run2_115825,A2,e,v,Con,l,1,1,,Switch,red,black,black,NoInc,3200,1,1345,1,1,722188,726687,728032,41876,50,680.312,684.811,686.156,28.415,274.409,520.42,246.014,492.025,738.019,ConSwitch
baseline,Cuedts,2,115825,bas_cue_run2_115825,D4,e,c,InCon,l,1,2,,Repeat,red,black,green,Inc,2000,1,1715,2,2,734186,738685,740400,41876,51,692.31,696.809,698.524,28.415,274.409,520.42,246.014,492.025,738.019,InConRepeat
baseline,Cuedts,2,115825,bas_cue_run2_115825,1B,o,c,Con,l,2,2,,Repeat,red,black,black,NoInc,3200,1,1120,2,2,744984,749483,750603,41876,52,703.108,707.607,708.727,28.415,274.409,520.42,246.014,492.025,738.019,ConRepeat
baseline,Cuedts,2,115825,bas_cue_run2_115825,5H,o,c,Con,n,2,2,,Switch,red,black,black,NoInc,4400,1,1175,2,2,756982,761481,762656,41876,53,715.106,719.605,720.78,28.415,274.409,520.42,246.014,492.025,738.019,ConSwitch
baseline,Cuedts,2,115825,bas_cue_run2_115825,2B,e,c,InCon,l,1,2,,Switch,red,black,black,NoInc,2000,0,2009,1,2,770197,774696,776705,41876,54,728.321,732.82,734.829,28.415,274.409,520.42,246.014,492.025,738.019,InConSwitch
baseline,Cuedts,1,123117,bas_cue_run1_123117,I6,e,v,Con,n,1,1,,,red,black,black,NoInc,2000,1,996,1,1,136357,140856,141852,105241,1,31.116,35.615,36.611,28.416,274.411,520.405,246.015,492.026,738.021,trial1
baseline,Cuedts,1,123117,bas_cue_run1_123117,I6,e,v,Con,l,1,1,,Switch,red,black,green,Inc,4400,1,1033,1,1,147155,151655,152688,105241,2,41.914,46.414,47.447,28.416,274.411,520.405,246.015,492.026,738.021,ConSwitch
baseline,Cuedts,1,123117,bas_cue_run1_123117,1A,o,v,InCon,l,2,1,,Repeat,red,black,black,NoInc,4400,0,1275,2,1,160353,164852,166127,105241,3,55.112,59.611,60.886,28.416,274.411,520.405,246.015,492.026,738.021,InConRepeat
baseline,Cuedts,1,123117,bas_cue_run1_123117,A2,e,v,Con,l,1,1,,Repeat,red,black,black,NoInc,4400,1,723,1,1,173551,178050,178773,105241,4,68.31,72.809,73.532,28.416,274.411,520.405,246.015,492.026,738.021,ConRepeat
baseline,Cuedts,1,123117,bas_cue_run1_123117,A2,e,v,Con,n,1,1,,Switch,red,black,black,NoInc,3200,1,1376,1,1,186749,191248,192624,105241,5,81.508,86.007,87.383,28.416,274.411,520.405,246.015,492.026,738.021,ConSwitch
baseline,Cuedts,1,123117,bas_cue_run1_123117,D4,e,c,InCon,n,1,2,,Repeat,red,black,green,Inc,3200,1,1373,1,1,198747,203246,204619,105241,6,93.506,98.005,99.378,28.416,274.411,520.405,246.015,492.026,738.021,InConRepeat
baseline,Cuedts,1,123117,bas_cue_run1_123117,E3,o,v,InCon,l,2,1,,Switch,red,black,green,Inc,2000,1,757,1,1,210745,215261,216018,105241,7,105.504,110.02,110.777,28.416,274.411,520.405,246.015,492.026,738.021,InConSwitch
baseline,Cuedts,1,123117,bas_cue_run1_123117,B1,o,c,Con,l,2,2,,Repeat,red,black,black,NoInc,2000,1,928,2,2,221560,226059,226987,105241,8,116.319,120.818,121.746,28.416,274.411,520.405,246.015,492.026,738.021,ConRepeat
baseline,Cuedts,1,123117,bas_cue_run1_123117,6I,e,v,Con,n,1,1,,Switch,red,black,green,Inc,3200,1,1343,1,1,232358,236858,238201,105241,9,127.117,131.617,132.96,28.416,274.411,520.405,246.015,492.026,738.021,ConSwitch
baseline,Cuedts,1,123117,bas_cue_run1_123117,D4,e,c,InCon,l,1,2,,Switch,red,black,green,Inc,2000,0,699,1,2,244356,248856,249555,105241,10,139.115,143.615,144.314,28.416,274.411,520.405,246.015,492.026,738.021,InConSwitch
baseline,Cuedts,1,123117,bas_cue_run1_123117,2A,e,v,Con,n,1,1,,Switch,red,black,black,NoInc,4400,1,988,1,1,255155,259654,260642,105241,11,149.914,154.413,155.401,28.416,274.411,520.405,246.015,492.026,738.021,ConSwitch
baseline,Cuedts,1,123117,bas_cue_run1_123117,B2,e,c,InCon,n,1,2,,Repeat,red,black,black,NoInc,3200,1,1385,1,1,268353,272852,274237,105241,12,163.112,167.611,168.996,28.416,274.411,520.405,246.015,492.026,738.021,InConRepeat
baseline,Cuedts,1,123117,bas_cue_run1_123117,H5,o,c,Con,l,2,2,,Switch,red,black,black,NoInc,4400,1,2132,2,2,280351,284850,286982,105241,13,175.11,179.609,181.741,28.416,274.411,520.405,246.015,492.026,738.021,ConSwitch
baseline,Cuedts,1,123117,bas_cue_run1_123117,1B,o,c,Con,n,2,2,,Switch,red,black,black,NoInc,2000,1,1265,2,2,293549,298048,299313,105241,14,188.308,192.807,194.072,28.416,274.411,520.405,246.015,492.026,738.021,ConSwitch
baseline,Cuedts,1,123117,bas_cue_run1_123117,1B,o,c,Con,l,2,2,,Switch,red,black,black,NoInc,3200,1,862,2,2,304347,308846,309708,105241,15,199.106,203.605,204.467,28.416,274.411,520.405,246.015,492.026,738.021,ConSwitch
baseline,Cuedts,1,123117,bas_cue_run1_123117,B1,o,c,Con,n,2,2,,Switch,red,black,black,NoInc,4400,1,2032,2,2,316345,320861,322893,105241,16,211.104,215.62,217.652,28.416,274.411,520.405,246.015,492.026,738.021,ConSwitch
baseline,Cuedts,1,123117,bas_cue_run1_123117,5H,o,c,Con,l,2,2,,Switch,red,black,black,NoInc,2000,1,1100,2,2,329560,334059,335159,105241,17,224.319,228.818,229.918,28.416,274.411,520.405,246.015,492.026,738.021,ConSwitch
baseline,Cuedts,1,123117,bas_cue_run1_123117,4D,e,c,InCon,n,1,2,,Switch,red,black,green,Inc,3200,1,1370,1,1,340358,344857,346227,105241,18,235.117,239.616,240.986,28.416,274.411,520.405,246.015,492.026,738.021,InConSwitch
baseline,Cuedts,1,123117,bas_cue_run1_123117,A2,e,v,Con,n,1,1,,,red,black,black,NoInc,3200,1,1132,1,1,382351,386851,387983,105241,19,277.11,281.61,282.742,28.416,274.411,520.405,246.015,492.026,738.021,trial1
baseline,Cuedts,1,123117,bas_cue_run1_123117,2A,e,v,Con,l,1,1,,Switch,red,black,black,NoInc,3200,1,1468,1,1,394349,398849,400317,105241,20,289.108,293.608,295.076,28.416,274.411,520.405,246.015,492.026,738.021,ConSwitch
baseline,Cuedts,1,123117,bas_cue_run1_123117,E3,o,v,InCon,n,2,1,,Switch,red,black,green,Inc,2000,1,1333,2,2,406347,410847,412180,105241,21,301.106,305.606,306.939,28.416,274.411,520.405,246.015,492.026,738.021,InConSwitch
baseline,Cuedts,1,123117,bas_cue_run1_123117,3E,o,v,InCon,l,2,1,,Switch,red,black,green,Inc,2000,1,1310,1,1,417146,421645,422955,105241,22,311.905,316.404,317.714,28.416,274.411,520.405,246.015,492.026,738.021,InConSwitch
baseline,Cuedts,1,123117,bas_cue_run1_123117,E3,o,v,InCon,n,2,1,,Switch,red,black,green,Inc,4400,1,1427,2,2,427961,432460,433887,105241,23,322.72,327.219,328.646,28.416,274.411,520.405,246.015,492.026,738.021,InConSwitch
baseline,Cuedts,1,123117,bas_cue_run1_123117,5H,o,c,Con,l,2,2,,Switch,red,black,black,NoInc,4400,0,945,1,2,441159,445658,446603,105241,24,335.918,340.417,341.362,28.416,274.411,520.405,246.015,492.026,738.021,ConSwitch
baseline,Cuedts,1,123117,bas_cue_run1_123117,1B,o,c,Con,l,2,2,,Repeat,red,black,black,NoInc,3200,1,1562,2,2,454357,458856,460418,105241,25,349.116,353.615,355.177,28.416,274.411,520.405,246.015,492.026,738.021,ConRepeat
baseline,Cuedts,1,123117,bas_cue_run1_123117,6I,e,v,Con,n,1,1,,Switch,red,black,black,NoInc,4400,1,1206,1,1,466355,470854,472060,105241,26,361.114,365.613,366.819,28.416,274.411,520.405,246.015,492.026,738.021,ConSwitch
baseline,Cuedts,1,123117,bas_cue_run1_123117,3E,o,v,InCon,n,2,1,,Repeat,red,black,green,Inc,2000,0,1507,1,2,479553,484052,485559,105241,27,374.312,378.811,380.318,28.416,274.411,520.405,246.015,492.026,738.021,InConRepeat
baseline,Cuedts,1,123117,bas_cue_run1_123117,2B,e,c,InCon,l,1,2,,Switch,red,black,black,NoInc,3200,1,1001,2,2,490351,494850,495851,105241,28,385.11,389.609,390.61,28.416,274.411,520.405,246.015,492.026,738.021,InConSwitch
baseline,Cuedts,1,123117,bas_cue_run1_123117,D4,e,c,InCon,l,1,2,,Repeat,red,black,green,Inc,2000,1,733,2,2,502349,506848,507581,105241,29,397.108,401.607,402.34,28.416,274.411,520.405,246.015,492.026,738.021,InConRepeat
baseline,Cuedts,1,123117,bas_cue_run1_123117,B1,o,c,Con,l,2,2,,Repeat,red,black,black,NoInc,3200,1,753,2,2,513147,517646,518399,105241,30,407.906,412.405,413.158,28.416,274.411,520.405,246.015,492.026,738.021,ConRepeat
baseline,Cuedts,1,123117,bas_cue_run1_123117,5H,o,c,Con,n,2,2,,Switch,red,black,green,Inc,2000,0,916,1,2,525145,529645,530561,105241,31,419.904,424.404,425.32,28.416,274.411,520.405,246.015,492.026,738.021,ConSwitch
baseline,Cuedts,1,123117,bas_cue_run1_123117,2A,e,v,Con,n,1,1,,Repeat,red,black,black,NoInc,3200,1,1074,1,1,535960,540460,541534,105241,32,430.719,435.219,436.293,28.416,274.411,520.405,246.015,492.026,738.021,ConRepeat
baseline,Cuedts,1,123117,bas_cue_run1_123117,1B,o,c,Con,n,2,2,,Repeat,red,black,black,NoInc,4400,1,1373,2,2,547958,552458,553831,105241,33,442.717,447.217,448.59,28.416,274.411,520.405,246.015,492.026,738.021,ConRepeat
baseline,Cuedts,1,123117,bas_cue_run1_123117,A1,o,v,InCon,n,2,1,,Repeat,red,black,black,NoInc,2000,1,1058,2,2,561156,565656,566714,105241,34,455.915,460.415,461.473,28.416,274.411,520.405,246.015,492.026,738.021,InConRepeat
baseline,Cuedts,1,123117,bas_cue_run1_123117,2A,e,v,Con,l,1,1,,Switch,red,black,black,NoInc,4400,0,875,2,1,571955,576454,577329,105241,35,466.714,471.213,472.088,28.416,274.411,520.405,246.015,492.026,738.021,ConSwitch
baseline,Cuedts,1,123117,bas_cue_run1_123117,I6,e,v,Con,l,1,1,,Repeat,red,black,black,NoInc,4400,0,1354,2,1,585152,589652,591006,105241,36,479.911,484.411,485.765,28.416,274.411,520.405,246.015,492.026,738.021,ConRepeat
baseline,Cuedts,1,123117,bas_cue_run1_123117,2A,e,v,Con,l,1,1,,,red,black,black,NoInc,4400,1,948,1,1,628346,632845,633793,105241,37,523.105,527.604,528.552,28.416,274.411,520.405,246.015,492.026,738.021,trial1
baseline,Cuedts,1,123117,bas_cue_run1_123117,E3,o,v,InCon,l,2,1,,Repeat,red,black,green,Inc,2000,0,1418,2,1,641560,646059,647477,105241,38,536.319,540.818,542.236,28.416,274.411,520.405,246.015,492.026,738.021,InConRepeat
baseline,Cuedts,1,123117,bas_cue_run1_123117,4D,e,c,InCon,n,1,2,,Switch,red,black,green,Inc,2000,1,1078,1,1,652358,656858,657936,105241,39,547.117,551.617,552.695,28.416,274.411,520.405,246.015,492.026,738.021,InConSwitch
baseline,Cuedts,1,123117,bas_cue_run1_123117,H5,o,c,Con,l,2,2,,Switch,red,black,green,Inc,4400,0,1543,1,2,663157,667656,669199,105241,40,557.916,562.415,563.958,28.416,274.411,520.405,246.015,492.026,738.021,ConSwitch
baseline,Cuedts,1,123117,bas_cue_run1_123117,6I,e,v,Con,n,1,1,,Switch,red,black,black,NoInc,3200,1,1410,1,1,676355,680854,682264,105241,41,571.114,575.613,577.023,28.416,274.411,520.405,246.015,492.026,738.021,ConSwitch
baseline,Cuedts,1,123117,bas_cue_run1_123117,A2,e,v,Con,l,1,1,,Switch,red,black,black,NoInc,3200,1,742,1,1,688353,692852,693594,105241,42,583.112,587.611,588.353,28.416,274.411,520.405,246.015,492.026,738.021,ConSwitch
baseline,Cuedts,1,123117,bas_cue_run1_123117,A2,e,v,Con,n,1,1,,Switch,red,black,black,NoInc,4400,1,1409,1,1,700351,704850,706259,105241,43,595.11,599.609,601.018,28.416,274.411,520.405,246.015,492.026,738.021,ConSwitch
baseline,Cuedts,1,123117,bas_cue_run1_123117,6I,e,v,Con,l,1,1,,Switch,red,black,black,NoInc,3200,1,1784,1,1,713549,718048,719832,105241,44,608.308,612.807,614.591,28.416,274.411,520.405,246.015,492.026,738.021,ConSwitch
baseline,Cuedts,1,123117,bas_cue_run1_123117,B1,o,c,Con,l,2,2,,Repeat,red,black,black,NoInc,2000,1,1252,2,2,725547,730046,731298,105241,45,620.306,624.805,626.057,28.416,274.411,520.405,246.015,492.026,738.021,ConRepeat
baseline,Cuedts,1,123117,bas_cue_run1_123117,1B,o,c,Con,l,2,2,,Repeat,red,black,black,NoInc,3200,1,245,2,2,736345,740861,741106,105241,46,631.104,635.62,635.865,28.416,274.411,520.405,246.015,492.026,738.021,ConRepeat
baseline,Cuedts,1,123117,bas_cue_run1_123117,2A,e,v,Con,n,1,1,,Switch,red,black,black,NoInc,2000,1,1874,1,1,748360,752859,754733,105241,47,643.119,647.618,649.492,28.416,274.411,520.405,246.015,492.026,738.021,ConSwitch
baseline,Cuedts,1,123117,bas_cue_run1_123117,H5,o,c,Con,n,2,2,,Repeat,red,black,black,NoInc,2000,1,1838,2,2,759158,763657,765495,105241,48,653.917,658.416,660.254,28.416,274.411,520.405,246.015,492.026,738.021,ConRepeat
baseline,Cuedts,1,123117,bas_cue_run1_123117,3E,o,v,InCon,n,2,1,,Repeat,red,black,green,Inc,3200,1,1566,2,2,769957,774456,776022,105241,49,664.716,669.215,670.781,28.416,274.411,520.405,246.015,492.026,738.021,InConRepeat
baseline,Cuedts,1,123117,bas_cue_run1_123117,1A,o,v,InCon,n,2,1,,Repeat,red,black,black,NoInc,3200,1,1795,2,2,781955,786454,788249,105241,50,676.714,681.213,683.008,28.416,274.411,520.405,246.015,492.026,738.021,InConRepeat
baseline,Cuedts,1,123117,bas_cue_run1_123117,4D,e,c,InCon,l,1,2,,Switch,red,black,green,Inc,2000,1,1059,2,2,793953,798452,799511,105241,51,688.712,693.211,694.27,28.416,274.411,520.405,246.015,492.026,738.021,InConSwitch
baseline,Cuedts,1,123117,bas_cue_run1_123117,3E,o,v,InCon,l,2,1,,Repeat,red,black,green,Inc,4400,1,2208,1,1,804751,809250,811458,105241,52,699.51,704.009,706.217,28.416,274.411,520.405,246.015,492.026,738.021,InConRepeat
baseline,Cuedts,1,123117,bas_cue_run1_123117,1B,o,c,Con,n,2,2,,Switch,red,black,black,NoInc,4400,1,502,2,2,817949,822448,822950,105241,53,712.708,717.207,717.709,28.416,274.411,520.405,246.015,492.026,738.021,ConSwitch
baseline,Cuedts,1,123117,bas_cue_run1_123117,B1,o,c,Con,n,2,2,,Repeat,red,black,black,NoInc,4400,1,750,2,2,831147,835646,836396,105241,54,725.906,730.405,731.155,28.416,274.411,520.405,246.015,492.026,738.021,ConRepeat
baseline,Cuedts,2,123117,bas_cue_run2_123117,B1,o,c,Con,l,2,2,,,red,black,black,NoInc,4400,1,1057,2,2,64788,69288,70345,33669,1,31.119,35.619,36.676,28.42,274.414,520.425,246.019,492.03,738.024,trial1
baseline,Cuedts,2,123117,bas_cue_run2_123117,A2,e,v,Con,n,1,1,,Switch,red,black,black,NoInc,3200,1,937,1,1,77986,82486,83423,33669,2,44.317,48.817,49.754,28.42,274.414,520.425,246.019,492.03,738.024,ConSwitch
baseline,Cuedts,2,123117,bas_cue_run2_123117,6I,e,v,Con,n,1,1,,Repeat,red,black,black,NoInc,2000,1,1163,1,1,89984,94484,95647,33669,3,56.315,60.815,61.978,28.42,274.414,520.425,246.019,492.03,738.024,ConRepeat
baseline,Cuedts,2,123117,bas_cue_run2_123117,E3,o,v,InCon,l,2,1,,Switch,red,black,green,Inc,3200,1,1562,1,1,100783,105282,106844,33669,4,67.114,71.613,73.175,28.42,274.414,520.425,246.019,492.03,738.024,InConSwitch
baseline,Cuedts,2,123117,bas_cue_run2_123117,6I,e,v,Con,l,1,1,,Repeat,red,black,green,Inc,4400,1,1815,1,1,112781,117280,119095,33669,5,79.112,83.611,85.426,28.42,274.414,520.425,246.019,492.03,738.024,ConRepeat
baseline,Cuedts,2,123117,bas_cue_run2_123117,1B,o,c,Con,n,2,2,,Switch,red,black,black,NoInc,2000,1,1453,2,2,125979,130478,131931,33669,6,92.31,96.809,98.262,28.42,274.414,520.425,246.019,492.03,738.024,ConSwitch
baseline,Cuedts,2,123117,bas_cue_run2_123117,A2,e,v,Con,l,1,1,,Switch,red,black,black,NoInc,3200,1,1849,1,1,136794,141293,143142,33669,7,103.125,107.624,109.473,28.42,274.414,520.425,246.019,492.03,738.024,ConSwitch
baseline,Cuedts,2,123117,bas_cue_run2_123117,1B,o,c,Con,l,2,2,,Repeat,red,black,black,NoInc,2000,1,1414,2,2,148792,153291,154705,33669,8,115.123,119.622,121.036,28.42,274.414,520.425,246.019,492.03,738.024,ConRepeat
baseline,Cuedts,2,123117,bas_cue_run2_123117,E3,o,v,InCon,n,2,1,,Switch,red,black,green,Inc,4400,0,2397,1,2,159590,164089,166486,33669,9,125.921,130.42,132.817,28.42,274.414,520.425,246.019,492.03,738.024,InConSwitch
baseline,Cuedts,2,123117,bas_cue_run2_123117,2A,e,v,Con,l,1,1,,Switch,red,black,black,NoInc,3200,1,1376,1,1,172788,177287,178663,33669,10,139.119,143.618,144.994,28.42,274.414,520.425,246.019,492.03,738.024,ConSwitch
baseline,Cuedts,2,123117,bas_cue_run2_123117,3E,o,v,InCon,n,2,1,,Switch,red,black,green,Inc,2000,1,1326,2,2,184786,189285,190611,33669,11,151.117,155.616,156.942,28.42,274.414,520.425,246.019,492.03,738.024,InConSwitch
baseline,Cuedts,2,123117,bas_cue_run2_123117,D4,e,c,InCon,n,1,2,,Repeat,red,black,green,Inc,2000,1,1185,1,1,195584,200084,201269,33669,12,161.915,166.415,167.6,28.42,274.414,520.425,246.019,492.03,738.024,InConRepeat
baseline,Cuedts,2,123117,bas_cue_run2_123117,5H,o,c,Con,n,2,2,,Repeat,red,black,black,NoInc,2000,1,922,2,2,206383,210882,211804,33669,13,172.714,177.213,178.135,28.42,274.414,520.425,246.019,492.03,738.024,ConRepeat
baseline,Cuedts,2,123117,bas_cue_run2_123117,4D,e,c,InCon,l,1,2,,Switch,red,black,green,Inc,4400,0,1553,1,2,217181,221680,223233,33669,14,183.512,188.011,189.564,28.42,274.414,520.425,246.019,492.03,738.024,InConSwitch
baseline,Cuedts,2,123117,bas_cue_run2_123117,H5,o,c,Con,l,2,2,,Repeat,red,black,black,NoInc,3200,1,1050,2,2,230379,234878,235928,33669,15,196.71,201.209,202.259,28.42,274.414,520.425,246.019,492.03,738.024,ConRepeat
baseline,Cuedts,2,123117,bas_cue_run2_123117,B2,e,c,InCon,l,1,2,,Repeat,red,black,black,NoInc,3200,1,1054,2,2,242394,246893,247947,33669,16,208.725,213.224,214.278,28.42,274.414,520.425,246.019,492.03,738.024,InConRepeat
baseline,Cuedts,2,123117,bas_cue_run2_123117,2A,e,v,Con,n,1,1,,Switch,red,black,black,NoInc,4400,1,947,1,1,254392,258891,259838,33669,17,220.723,225.222,226.169,28.42,274.414,520.425,246.019,492.03,738.024,ConSwitch
baseline,Cuedts,2,123117,bas_cue_run2_123117,B1,o,c,Con,n,2,2,,Repeat,red,black,black,NoInc,4400,1,798,2,2,267590,272089,272887,33669,18,233.921,238.42,239.218,28.42,274.414,520.425,246.019,492.03,738.024,ConRepeat
baseline,Cuedts,2,123117,bas_cue_run2_123117,3E,o,v,InCon,l,2,1,,,red,black,green,Inc,4400,1,1228,1,1,310783,315282,316510,33669,19,277.114,281.613,282.841,28.42,274.414,520.425,246.019,492.03,738.024,trial1
baseline,Cuedts,2,123117,bas_cue_run2_123117,I6,e,v,Con,n,1,1,,Switch,red,black,black,NoInc,2000,1,2060,1,1,323981,328480,330540,33669,20,290.312,294.811,296.871,28.42,274.414,520.425,246.019,492.03,738.024,ConSwitch
baseline,Cuedts,2,123117,bas_cue_run2_123117,1A,o,v,InCon,n,2,1,,Repeat,red,black,black,NoInc,4400,1,1105,2,2,334779,339278,340383,33669,21,301.11,305.609,306.714,28.42,274.414,520.425,246.019,492.03,738.024,InConRepeat
baseline,Cuedts,2,123117,bas_cue_run2_123117,B1,o,c,Con,n,2,2,,Repeat,red,black,black,NoInc,3200,0,708,1,2,347993,352493,353201,33669,22,314.324,318.824,319.532,28.42,274.414,520.425,246.019,492.03,738.024,ConRepeat
baseline,Cuedts,2,123117,bas_cue_run2_123117,2A,e,v,Con,l,1,1,,Switch,red,black,black,NoInc,3200,1,1313,1,1,359992,364491,365804,33669,23,326.323,330.822,332.135,28.42,274.414,520.425,246.019,492.03,738.024,ConSwitch
baseline,Cuedts,2,123117,bas_cue_run2_123117,5H,o,c,Con,l,2,2,,Repeat,red,black,green,Inc,4400,1,1521,2,2,371990,376489,378010,33669,24,338.321,342.82,344.341,28.42,274.414,520.425,246.019,492.03,738.024,ConRepeat
baseline,Cuedts,2,123117,bas_cue_run2_123117,2A,e,v,Con,n,1,1,,Switch,red,black,black,NoInc,2000,1,645,1,1,385188,389687,390332,33669,25,351.519,356.018,356.663,28.42,274.414,520.425,246.019,492.03,738.024,ConSwitch
baseline,Cuedts,2,123117,bas_cue_run2_123117,4D,e,c,InCon,n,1,2,,Repeat,red,black,green,Inc,2000,0,1680,2,1,395986,400485,402165,33669,26,362.317,366.816,368.496,28.42,274.414,520.425,246.019,492.03,738.024,InConRepeat
baseline,Cuedts,2,123117,bas_cue_run2_123117,A2,e,v,Con,l,1,1,,Switch,red,black,black,NoInc,3200,1,721,1,1,406784,411283,412004,33669,27,373.115,377.614,378.335,28.42,274.414,520.425,246.019,492.03,738.024,ConSwitch
baseline,Cuedts,2,123117,bas_cue_run2_123117,D4,e,c,InCon,l,1,2,,Repeat,red,black,green,Inc,2000,1,1284,2,2,418782,423282,424566,33669,28,385.113,389.613,390.897,28.42,274.414,520.425,246.019,492.03,738.024,InConRepeat
baseline,Cuedts,2,123117,bas_cue_run2_123117,D4,e,c,InCon,n,1,2,,Switch,red,black,green,Inc,3200,1,941,1,1,429581,434080,435021,33669,29,395.912,400.411,401.352,28.42,274.414,520.425,246.019,492.03,738.024,InConSwitch
baseline,Cuedts,2,123117,bas_cue_run2_123117,B1,o,c,Con,l,2,2,,Switch,red,black,black,NoInc,2000,0,0,,2,441579,446078,0,33669,30,407.91,412.409,-33.669,28.42,274.414,520.425,246.019,492.03,738.024,ConSwitch
baseline,Cuedts,2,123117,bas_cue_run2_123117,I6,e,v,Con,l,1,1,,Repeat,red,black,black,NoInc,4400,1,1548,1,1,452394,456893,458441,33669,31,418.725,423.224,424.772,28.42,274.414,520.425,246.019,492.03,738.024,ConRepeat
baseline,Cuedts,2,123117,bas_cue_run2_123117,H5,o,c,Con,l,2,2,,Repeat,red,black,black,NoInc,4400,1,1577,2,2,465592,470091,471668,33669,32,431.923,436.422,437.999,28.42,274.414,520.425,246.019,492.03,738.024,ConRepeat
baseline,Cuedts,2,123117,bas_cue_run2_123117,2B,e,c,InCon,n,1,2,,Switch,red,black,black,NoInc,3200,1,1001,1,1,478789,483289,484290,33669,33,445.12,449.62,450.621,28.42,274.414,520.425,246.019,492.03,738.024,InConSwitch
baseline,Cuedts,2,123117,bas_cue_run2_123117,1B,o,c,Con,l,2,2,,Switch,red,black,black,NoInc,3200,1,2120,2,2,490788,495287,497407,33669,34,457.119,461.618,463.738,28.42,274.414,520.425,246.019,492.03,738.024,ConSwitch
baseline,Cuedts,2,123117,bas_cue_run2_123117,I6,e,v,Con,n,1,1,,Switch,red,black,green,Inc,4400,1,2033,1,1,502786,507285,509318,33669,35,469.117,473.616,475.649,28.42,274.414,520.425,246.019,492.03,738.024,ConSwitch
baseline,Cuedts,2,123117,bas_cue_run2_123117,A2,e,v,Con,n,1,1,,Repeat,red,black,black,NoInc,2000,1,768,1,1,515984,520483,521251,33669,36,482.315,486.814,487.582,28.42,274.414,520.425,246.019,492.03,738.024,ConRepeat
baseline,Cuedts,2,123117,bas_cue_run2_123117,3E,o,v,InCon,n,2,1,,,red,black,green,Inc,3200,1,745,2,2,556794,561293,562038,33669,37,523.125,527.624,528.369,28.42,274.414,520.425,246.019,492.03,738.024,trial1
baseline,Cuedts,2,123117,bas_cue_run2_123117,1B,o,c,Con,l,2,2,,Switch,red,black,black,NoInc,3200,1,1090,2,2,568792,573291,574381,33669,38,535.123,539.622,540.712,28.42,274.414,520.425,246.019,492.03,738.024,ConSwitch
baseline,Cuedts,2,123117,bas_cue_run2_123117,H5,o,c,Con,n,2,2,,Switch,red,black,green,Inc,4400,1,1002,2,2,580790,585289,586291,33669,39,547.121,551.62,552.622,28.42,274.414,520.425,246.019,492.03,738.024,ConSwitch
baseline,Cuedts,2,123117,bas_cue_run2_123117,A1,o,v,InCon,l,2,1,,Switch,red,black,black,NoInc,3200,1,841,1,1,593988,598487,599328,33669,40,560.319,564.818,565.659,28.42,274.414,520.425,246.019,492.03,738.024,InConSwitch
baseline,Cuedts,2,123117,bas_cue_run2_123117,4D,e,c,InCon,n,1,2,,Switch,red,black,green,Inc,4400,1,1062,1,1,605986,610485,611547,33669,41,572.317,576.816,577.878,28.42,274.414,520.425,246.019,492.03,738.024,InConSwitch
baseline,Cuedts,2,123117,bas_cue_run2_123117,2A,e,v,Con,n,1,1,,Repeat,red,black,black,NoInc,4400,1,926,1,1,619184,623683,624609,33669,42,585.515,590.014,590.94,28.42,274.414,520.425,246.019,492.03,738.024,ConRepeat
baseline,Cuedts,2,123117,bas_cue_run2_123117,A2,e,v,Con,n,1,1,,Repeat,red,black,black,NoInc,2000,1,838,1,1,632382,636881,637719,33669,43,598.713,603.212,604.05,28.42,274.414,520.425,246.019,492.03,738.024,ConRepeat
baseline,Cuedts,2,123117,bas_cue_run2_123117,A2,e,v,Con,l,1,1,,Switch,red,black,black,NoInc,2000,1,724,1,1,643180,647679,648403,33669,44,609.511,614.01,614.734,28.42,274.414,520.425,246.019,492.03,738.024,ConSwitch
baseline,Cuedts,2,123117,bas_cue_run2_123117,5H,o,c,Con,n,2,2,,Switch,red,black,black,NoInc,2000,1,831,2,2,653978,658494,659325,33669,45,620.309,624.825,625.656,28.42,274.414,520.425,246.019,492.03,738.024,ConSwitch
baseline,Cuedts,2,123117,bas_cue_run2_123117,E3,o,v,InCon,l,2,1,,Switch,red,black,green,Inc,2000,1,334,1,1,664793,669293,669627,33669,46,631.124,635.624,635.958,28.42,274.414,520.425,246.019,492.03,738.024,InConSwitch
baseline,Cuedts,2,123117,bas_cue_run2_123117,H5,o,c,Con,l,2,2,,Repeat,red,black,black,NoInc,2000,1,1888,2,2,675592,680091,681979,33669,47,641.923,646.422,648.31,28.42,274.414,520.425,246.019,492.03,738.024,ConRepeat
baseline,Cuedts,2,123117,bas_cue_run2_123117,6I,e,v,Con,n,1,1,,Switch,red,black,black,NoInc,4400,1,2124,1,1,686390,690889,693013,33669,48,652.721,657.22,659.344,28.42,274.414,520.425,246.019,492.03,738.024,ConSwitch
baseline,Cuedts,2,123117,bas_cue_run2_123117,D4,e,c,InCon,l,1,2,,Switch,red,black,green,Inc,3200,0,0,,2,699588,704087,0,33669,49,665.919,670.418,-33.669,28.42,274.414,520.425,246.019,492.03,738.024,InConSwitch
baseline,Cuedts,2,123117,bas_cue_run2_123117,4D,e,c,InCon,l,1,2,,Repeat,red,black,green,Inc,2000,1,1922,2,2,711586,716085,718007,33669,50,677.917,682.416,684.338,28.42,274.414,520.425,246.019,492.03,738.024,InConRepeat
baseline,Cuedts,2,123117,bas_cue_run2_123117,B1,o,c,Con,l,2,2,,Repeat,red,black,black,NoInc,4400,1,1180,2,2,722384,726883,728063,33669,51,688.715,693.214,694.394,28.42,274.414,520.425,246.019,492.03,738.024,ConRepeat
baseline,Cuedts,2,123117,bas_cue_run2_123117,B1,o,c,Con,n,2,2,,Switch,red,black,black,NoInc,3200,1,1379,2,2,735582,740081,741460,33669,52,701.913,706.412,707.791,28.42,274.414,520.425,246.019,492.03,738.024,ConSwitch
baseline,Cuedts,2,123117,bas_cue_run2_123117,2B,e,c,InCon,l,1,2,,Switch,red,black,black,NoInc,3200,1,701,2,2,747580,752079,752780,33669,53,713.911,718.41,719.111,28.42,274.414,520.425,246.019,492.03,738.024,InConSwitch
baseline,Cuedts,2,123117,bas_cue_run2_123117,1B,o,c,Con,n,2,2,,Switch,red,black,black,NoInc,4400,1,1533,2,2,759578,764094,765627,33669,54,725.909,730.425,731.958,28.42,274.414,520.425,246.019,492.03,738.024,ConSwitch
baseline,Cuedts,1,130114,bas_cue_run1_130114,A2,e,v,Con,n,1,1,,,red,black,black,NoInc,4400,1,1235,1,1,260575,265074,266309,229461,1,31.114,35.613,36.848,28.414,274.409,520.42,246.013,492.024,738.019,trial1
baseline,Cuedts,1,130114,bas_cue_run1_130114,1B,o,c,Con,n,2,2,,Repeat,red,black,black,NoInc,3200,0,1905,1,2,273773,278272,280177,229461,2,44.312,48.811,50.716,28.414,274.409,520.42,246.013,492.024,738.019,ConRepeat
baseline,Cuedts,1,130114,bas_cue_run1_130114,D4,e,c,InCon,l,1,2,,Switch,red,black,green,Inc,3200,1,1451,2,2,285771,290270,291721,229461,3,56.31,60.809,62.26,28.414,274.409,520.42,246.013,492.024,738.019,InConSwitch
baseline,Cuedts,1,130114,bas_cue_run1_130114,B1,o,c,Con,n,2,2,,Switch,red,black,black,NoInc,2000,1,1259,2,2,297769,302268,303527,229461,4,68.308,72.807,74.066,28.414,274.409,520.42,246.013,492.024,738.019,ConSwitch
baseline,Cuedts,1,130114,bas_cue_run1_130114,4D,e,c,InCon,n,1,2,,Repeat,red,black,green,Inc,3200,1,2626,1,1,308567,313067,315693,229461,5,79.106,83.606,86.232,28.414,274.409,520.42,246.013,492.024,738.019,InConRepeat
baseline,Cuedts,1,130114,bas_cue_run1_130114,5H,o,c,Con,l,2,2,,Switch,red,black,black,NoInc,4400,1,1096,2,2,320565,325065,326161,229461,6,91.104,95.604,96.7,28.414,274.409,520.42,246.013,492.024,738.019,ConSwitch
baseline,Cuedts,1,130114,bas_cue_run1_130114,H5,o,c,Con,l,2,2,,Repeat,red,black,black,NoInc,2000,1,799,2,2,333763,338279,339078,229461,7,104.302,108.818,109.617,28.414,274.409,520.42,246.013,492.024,738.019,ConRepeat
baseline,Cuedts,1,130114,bas_cue_run1_130114,B2,e,c,InCon,n,1,2,,Switch,red,black,black,NoInc,2000,1,911,1,1,344578,349078,349989,229461,8,115.117,119.617,120.528,28.414,274.409,520.42,246.013,492.024,738.019,InConSwitch
baseline,Cuedts,1,130114,bas_cue_run1_130114,B1,o,c,Con,l,2,2,,Switch,red,black,black,NoInc,4400,1,824,2,2,355377,359876,360700,229461,9,125.916,130.415,131.239,28.414,274.409,520.42,246.013,492.024,738.019,ConSwitch
baseline,Cuedts,1,130114,bas_cue_run1_130114,1B,o,c,Con,l,2,2,,Repeat,red,black,black,NoInc,4400,1,1064,2,2,368574,373074,374138,229461,10,139.113,143.613,144.677,28.414,274.409,520.42,246.013,492.024,738.019,ConRepeat
baseline,Cuedts,1,130114,bas_cue_run1_130114,I6,e,v,Con,n,1,1,,Switch,red,black,black,NoInc,2000,1,1479,1,1,381772,386272,387751,229461,11,152.311,156.811,158.29,28.414,274.409,520.42,246.013,492.024,738.019,ConSwitch
baseline,Cuedts,1,130114,bas_cue_run1_130114,A2,e,v,Con,l,1,1,,Switch,red,black,black,NoInc,4400,1,2036,1,1,392571,397070,399106,229461,12,163.11,167.609,169.645,28.414,274.409,520.42,246.013,492.024,738.019,ConSwitch
baseline,Cuedts,1,130114,bas_cue_run1_130114,D4,e,c,InCon,n,1,2,,Switch,red,black,green,Inc,3200,1,1065,1,1,405769,410268,411333,229461,13,176.308,180.807,181.872,28.414,274.409,520.42,246.013,492.024,738.019,InConSwitch
baseline,Cuedts,1,130114,bas_cue_run1_130114,I6,e,v,Con,l,1,1,,Switch,red,black,green,Inc,2000,1,1485,1,1,417767,422266,423751,229461,14,188.306,192.805,194.29,28.414,274.409,520.42,246.013,492.024,738.019,ConSwitch
baseline,Cuedts,1,130114,bas_cue_run1_130114,6I,e,v,Con,n,1,1,,Switch,red,black,green,Inc,3200,1,1501,1,1,428565,433064,434565,229461,15,199.104,203.603,205.104,28.414,274.409,520.42,246.013,492.024,738.019,ConSwitch
baseline,Cuedts,1,130114,bas_cue_run1_130114,E3,o,v,InCon,l,2,1,,Switch,red,black,green,Inc,3200,1,927,1,1,440563,445079,446006,229461,16,211.102,215.618,216.545,28.414,274.409,520.42,246.013,492.024,738.019,InConSwitch
baseline,Cuedts,1,130114,bas_cue_run1_130114,1A,o,v,InCon,l,2,1,,Repeat,red,black,black,NoInc,4400,1,882,1,1,452578,457077,457959,229461,17,223.117,227.616,228.498,28.414,274.409,520.42,246.013,492.024,738.019,InConRepeat
baseline,Cuedts,1,130114,bas_cue_run1_130114,2A,e,v,Con,n,1,1,,Switch,red,black,black,NoInc,2000,1,1056,1,1,465776,470275,471331,229461,18,236.315,240.814,241.87,28.414,274.409,520.42,246.013,492.024,738.019,ConSwitch
baseline,Cuedts,1,130114,bas_cue_run1_130114,1B,o,c,Con,l,2,2,,,red,black,black,NoInc,3200,1,1003,2,2,506569,511069,512072,229461,19,277.108,281.608,282.611,28.414,274.409,520.42,246.013,492.024,738.019,trial1
baseline,Cuedts,1,130114,bas_cue_run1_130114,3E,o,v,InCon,l,2,1,,Repeat,red,black,green,Inc,3200,1,944,1,1,518567,523067,524011,229461,20,289.106,293.606,294.55,28.414,274.409,520.42,246.013,492.024,738.019,InConRepeat
baseline,Cuedts,1,130114,bas_cue_run1_130114,5H,o,c,Con,l,2,2,,Repeat,red,black,black,NoInc,3200,1,1151,2,2,530566,535065,536216,229461,21,301.105,305.604,306.755,28.414,274.409,520.42,246.013,492.024,738.019,ConRepeat
baseline,Cuedts,1,130114,bas_cue_run1_130114,E3,o,v,InCon,n,2,1,,Switch,red,black,green,Inc,2000,1,2168,2,2,542564,547063,549231,229461,22,313.103,317.602,319.77,28.414,274.409,520.42,246.013,492.024,738.019,InConSwitch
baseline,Cuedts,1,130114,bas_cue_run1_130114,A1,o,v,InCon,n,2,1,,Repeat,red,black,black,NoInc,4400,0,1447,1,2,553379,557878,559325,229461,23,323.918,328.417,329.864,28.414,274.409,520.42,246.013,492.024,738.019,InConRepeat
baseline,Cuedts,1,130114,bas_cue_run1_130114,3E,o,v,InCon,n,2,1,,Repeat,red,black,green,Inc,2000,1,1840,2,2,566577,571076,572916,229461,24,337.116,341.615,343.455,28.414,274.409,520.42,246.013,492.024,738.019,InConRepeat
baseline,Cuedts,1,130114,bas_cue_run1_130114,6I,e,v,Con,n,1,1,,Repeat,red,black,black,NoInc,4400,1,1225,1,1,577375,581874,583099,229461,25,347.914,352.413,353.638,28.414,274.409,520.42,246.013,492.024,738.019,ConRepeat
