session,task,run,subj,name,word,trial.type,pc,color,iti,time.target.onset.abs,time.scan.start,trial.num,listener1,listener2,correctcolor,response.final,acc.final,rt,item,time.target.onset,time.rt.abs,time.rt,acc,time.block1.on,time.block2.on,time.block3.on,time.block1.off,time.block2.off,time.block3.off
bas,stp,1,102008,bas_stp_run1_102008,BLACK,c,pc50,black,2400,81383,50659,1,black,black,black,black,1,896,blackBLACK,30.724,82279,926.724,1,28.424,231.225,434.026,202.83,405.631,608.432
bas,stp,1,102008,bas_stp_run1_102008,YELLOW,i,pc50,black,3600,86182,50659,2,black,black,black,black,1,922,blackYELLOW,35.523,87104,957.523,1,28.424,231.225,434.026,202.83,405.631,608.432
bas,stp,1,102008,bas_stp_run1_102008,BLUE,c,mc,blue,3600,92181,50659,3,blue,blue,blue,blue,1,872,blueBLUE,41.522,93053,913.522,1,28.424,231.225,434.026,202.83,405.631,608.432
bas,stp,1,102008,bas_stp_run1_102008,RED,c,mc,red,3600,98180,50659,4,red,green,red,red,1,915.5,redRED,47.521,99095.5,963.021,1,28.424,231.225,434.026,202.83,405.631,608.432
bas,stp,1,102008,bas_stp_run1_102008,BLACK,i,pc50,green,1200,104179,50659,5,green,green,green,green,1,785,greenBLACK,53.52,104964,838.52,1,28.424,231.225,434.026,202.83,405.631,608.432
bas,stp,1,102008,bas_stp_run1_102008,WHITE,c,mc,white,2400,107779,50659,6,white,white,white,white,1,774,whiteWHITE,57.12,108553,831.12,1,28.424,231.225,434.026,202.83,405.631,608.432
bas,stp,1,102008,bas_stp_run1_102008,GREEN,c,pc50,green,2400,112578,50659,7,green,green,green,green,1,713.5,greenGREEN,61.919,113291.5,775.419,1,28.424,231.225,434.026,202.83,405.631,608.432
bas,stp,1,102008,bas_stp_run1_102008,RED,c,mc,red,1200,117377,50659,8,red,red,red,red,1,799,redRED,66.718,118176,865.718,1,28.424,231.225,434.026,202.83,405.631,608.432
bas,stp,1,102008,bas_stp_run1_102008,YELLOW,c,pc50,yellow,3600,120976,50659,9,yellow,yellow,yellow,yellow,1,842,yellowYELLOW,70.317,121818,912.317,1,28.424,231.225,434.026,202.83,405.631,608.432
bas,stp,1,102008,bas_stp_run1_102008,WHITE,c,mc,white,1200,126975,50659,10,white,white,white,white,1,839,whiteWHITE,76.316,127814,915.316,1,28.424,231.225,434.026,202.83,405.631,608.432
bas,stp,1,102008,bas_stp_run1_102008,RED,c,mc,red,2400,130575,50659,11,red,red,red,red,1,959,redRED,79.916,131534,1038.916,1,28.424,231.225,434.026,202.83,405.631,608.432
bas,stp,1,102008,bas_stp_run1_102008,BLUE,c,mc,blue,1200,135374,50659,12,blue,blue,blue,blue,1,715.5,blueBLUE,84.715,136089.5,800.215,1,28.424,231.225,434.026,202.83,405.631,608.432
bas,stp,1,102008,bas_stp_run1_102008,PURPLE,i,mc,white,3600,138974,50659,13,white,white,white,white,1,964.5,whitePURPLE,88.315,139938.5,1052.815,1,28.424,231.225,434.026,202.83,405.631,608.432
bas,stp,1,102008,bas_stp_run1_102008,PURPLE,c,mc,purple,1200,144973,50659,14,purple- slightly distorted,purple,purple,purple,1,1007,purplePURPLE,94.314,145980,1101.314,1,28.424,231.225,434.026,202.83,405.631,608.432
bas,stp,1,102008,bas_stp_run1_102008,PURPLE,c,mc,purple,2400,148572,50659,15,purple,purple,purple,purple,1,668.5,purplePURPLE,97.913,149240.5,766.413,1,28.424,231.225,434.026,202.83,405.631,608.432
bas,stp,1,102008,bas_stp_run1_102008,PINK,i,pc50,black,3600,153371,50659,16,black,black,black,black,1,987,blackPINK,102.712,154358,1089.712,1,28.424,231.225,434.026,202.83,405.631,608.432
bas,stp,1,102008,bas_stp_run1_102008,PURPLE,i,mc,red,1200,159370,50659,17,red,red,red,red,1,1131.5,redPURPLE,108.711,160501.5,1240.211,1,28.424,231.225,434.026,202.83,405.631,608.432
bas,stp,1,102008,bas_stp_run1_102008,BLUE,c,mc,blue,3600,162970,50659,18,blue,blue,blue,blue,1,937,blueBLUE,112.311,163907,1049.311,1,28.424,231.225,434.026,202.83,405.631,608.432
bas,stp,1,102008,bas_stp_run1_102008,GREEN,i,pc50,yellow,2400,168969,50659,19,yellow,yellow,yellow,yellow,1,958.5,yellowGREEN,118.31,169927.5,1076.81,1,28.424,231.225,434.026,202.83,405.631,608.432
bas,stp,1,102008,bas_stp_run1_102008,PURPLE,c,mc,purple,1200,173768,50659,20,purple,purple,purple,purple,1,912,purplePURPLE,123.109,174680,1035.109,1,28.424,231.225,434.026,202.83,405.631,608.432
bas,stp,1,102008,bas_stp_run1_102008,YELLOW,c,pc50,yellow,1200,177384,50659,21,yellow,yellow,yellow,yellow,1,827.5,yellowYELLOW,126.725,178211.5,954.225,1,28.424,231.225,434.026,202.83,405.631,608.432
bas,stp,1,102008,bas_stp_run1_102008,PURPLE,c,mc,purple,2400,180984,50659,22,purple,purple,purple,purple,1,962,purplePURPLE,130.325,181946,1092.325,1,28.424,231.225,434.026,202.83,405.631,608.432
bas,stp,1,102008,bas_stp_run1_102008,BLUE,c,mc,blue,2400,185783,50659,23,blue,pink,blue,blue,1,735,blueBLUE,135.124,186518,870.124,1,28.424,231.225,434.026,202.83,405.631,608.432
bas,stp,1,102008,bas_stp_run1_102008,RED,i,mc,white,3600,190582,50659,24,white,white,white,white,1,865,whiteRED,139.923,191447,1004.923,1,28.424,231.225,434.026,202.83,405.631,608.432
bas,stp,1,102008,bas_stp_run1_102008,WHITE,c,mc,white,2400,196581,50659,25,white,white,white,white,1,766,whiteWHITE,145.922,197347,911.922,1,28.424,231.225,434.026,202.83,405.631,608.432
bas,stp,1,102008,bas_stp_run1_102008,BLUE,i,mc,red,1200,201380,50659,26,red,red,red,red,1,811.5,redBLUE,150.721,202191.5,962.221,1,28.424,231.225,434.026,202.83,405.631,608.432
bas,stp,1,102008,bas_stp_run1_102008,WHITE,i,mc,blue,3600,204980,50659,27,blue,blue,blue,blue,1,829,blueWHITE,154.321,205809,983.321,1,28.424,231.225,434.026,202.83,405.631,608.432
bas,stp,1,102008,bas_stp_run1_102008,RED,c,mc,red,2400,210979,50659,28,red,red,red,red,1,699,redRED,160.32,211678,859.32,1,28.424,231.225,434.026,202.83,405.631,608.432
bas,stp,1,102008,bas_stp_run1_102008,PURPLE,c,mc,purple,2400,215778,50659,29,purple,purple,purple,purple,1,770,purplePURPLE,165.119,216548,935.119,1,28.424,231.225,434.026,202.83,405.631,608.432
bas,stp,1,102008,bas_stp_run1_102008,GREEN,c,pc50,green,3600,220577,50659,30,green,green,green,green,1,753.5,greenGREEN,169.918,221330.5,923.418,1,28.424,231.225,434.026,202.83,405.631,608.432
bas,stp,1,102008,bas_stp_run1_102008,BLUE,c,mc,blue,1200,226576,50659,31,blue,blue,blue,blue,1,768,blueBLUE,175.917,227344,943.917,1,28.424,231.225,434.026,202.83,405.631,608.432
bas,stp,1,102008,bas_stp_run1_102008,WHITE,c,mc,white,2400,230176,50659,32,white,white,white,white,1,741,whiteWHITE,179.517,230917,920.517,1,28.424,231.225,434.026,202.83,405.631,608.432
bas,stp,1,102008,bas_stp_run1_102008,GREEN,i,pc50,pink,1200,234975,50659,33,pink,pink,pink,pink,1,833.5,pinkGREEN,184.316,235808.5,1017.816,1,28.424,231.225,434.026,202.83,405.631,608.432
bas,stp,1,102008,bas_stp_run1_102008,BLUE,i,mc,purple,3600,238574,50659,34,purple,purple,purple,purple,1,1504,purpleBLUE,187.915,240078,1691.915,1,28.424,231.225,434.026,202.83,405.631,608.432
bas,stp,1,102008,bas_stp_run1_102008,YELLOW,i,pc50,pink,3600,244574,50659,35,pink,pink,pink,pink,1,916,pinkYELLOW,193.915,245490,1109.915,1,28.424,231.225,434.026,202.83,405.631,608.432
bas,stp,1,102008,bas_stp_run1_102008,PINK,c,pc50,pink,1200,250573,50659,36,pink,pink,pink,pink,1,800,pinkPINK,199.914,251373,999.914,1,28.424,231.225,434.026,202.83,405.631,608.432
bas,stp,1,102008,bas_stp_run1_102008,BLUE,i,mc,purple,3600,284184,50659,37,purple,purple,purple,purple,1,1095,purpleBLUE,233.525,285279,1328.525,1,28.424,231.225,434.026,202.83,405.631,608.432
bas,stp,1,102008,bas_stp_run1_102008,BLACK,i,pc50,green,2400,290183,50659,38,green,green,green,green,1,819,greenBLACK,239.524,291002,1058.524,1,28.424,231.225,434.026,202.83,405.631,608.432
bas,stp,1,102008,bas_stp_run1_102008,RED,c,mc,red,2400,294982,50659,39,red,red,red,red,1,772,redRED,244.323,295754,1016.323,1,28.424,231.225,434.026,202.83,405.631,608.432
bas,stp,1,102008,bas_stp_run1_102008,BLUE,c,mc,blue,3600,299781,50659,40,blue,blue,blue,blue,1,731,blueBLUE,249.122,300512,980.122,1,28.424,231.225,434.026,202.83,405.631,608.432
bas,stp,1,102008,bas_stp_run1_102008,PURPLE,i,mc,red,2400,305780,50659,41,red,red,red,red,1,941.5,redPURPLE,255.121,306721.5,1196.621,1,28.424,231.225,434.026,202.83,405.631,608.432
bas,stp,1,102008,bas_stp_run1_102008,WHITE,c,mc,white,1200,310580,50659,42,white,white,white,white,1,692,whiteWHITE,259.921,311272,951.921,1,28.424,231.225,434.026,202.83,405.631,608.432
bas,stp,1,102008,bas_stp_run1_102008,PURPLE,c,mc,purple,3600,314179,50659,43,purple- distorted,purple,purple,purple,1,721.5,purplePURPLE,263.52,314900.5,985.02,1,28.424,231.225,434.026,202.83,405.631,608.432
bas,stp,1,102008,bas_stp_run1_102008,GREEN,c,pc50,green,1200,320178,50659,44,green- faint,green,green,green,1,742.5,greenGREEN,269.519,320920.5,1012.019,1,28.424,231.225,434.026,202.83,405.631,608.432
bas,stp,1,102008,bas_stp_run1_102008,WHITE,c,mc,white,1200,323778,50659,45,white,white,white,white,1,704.5,whiteWHITE,273.119,324482.5,977.619,1,28.424,231.225,434.026,202.83,405.631,608.432
bas,stp,1,102008,bas_stp_run1_102008,PURPLE,c,mc,purple,1200,327377,50659,46,purple- slightly distorted,yellow,purple,purple,1,847,purplePURPLE,276.718,328224,1123.718,1,28.424,231.225,434.026,202.83,405.631,608.432
bas,stp,1,102008,bas_stp_run1_102008,GREEN,c,pc50,green,3600,330976,50659,47,green,green,green,green,1,633,greenGREEN,280.317,331609,913.317,1,28.424,231.225,434.026,202.83,405.631,608.432
bas,stp,1,102008,bas_stp_run1_102008,PURPLE,c,mc,purple,2400,336976,50659,48,purple- distorted,purple,purple,purple,1,735,purplePURPLE,286.317,337711,1021.317,1,28.424,231.225,434.026,202.83,405.631,608.432
bas,stp,1,102008,bas_stp_run1_102008,PINK,i,pc50,black,3600,341775,50659,49,black,black,black,black,1,844.5,blackPINK,291.116,342619.5,1135.616,1,28.424,231.225,434.026,202.83,405.631,608.432
bas,stp,1,102008,bas_stp_run1_102008,BLUE,c,mc,blue,2400,347774,50659,50,blue,blue,blue,blue,1,836,blueBLUE,297.115,348610,1133.115,1,28.424,231.225,434.026,202.83,405.631,608.432
bas,stp,1,102008,bas_stp_run1_102008,WHITE,c,mc,white,2400,352573,50659,51,white,white,white,white,1,686.5,whiteWHITE,301.914,353259.5,988.414,1,28.424,231.225,434.026,202.83,405.631,608.432
bas,stp,1,102008,bas_stp_run1_102008,RED,c,mc,red,1200,357372,50659,52,red,red,red,red,1,862.5,redRED,306.713,358234.5,1169.213,1,28.424,231.225,434.026,202.83,405.631,608.432
bas,stp,1,102008,bas_stp_run1_102008,BLUE,c,mc,blue,2400,360972,50659,53,blue,blue,blue,blue,1,1003.5,blueBLUE,310.313,361975.5,1313.813,1,28.424,231.225,434.026,202.83,405.631,608.432
bas,stp,1,102008,bas_stp_run1_102008,BLACK,c,pc50,black,1200,365771,50659,54,black,black,black,black,1,827.5,blackBLACK,315.112,366598.5,1142.612,1,28.424,231.225,434.026,202.83,405.631,608.432
bas,stp,1,102008,bas_stp_run1_102008,BLUE,c,mc,blue,1200,369370,50659,55,blue,blue,blue,blue,1,795,blueBLUE,318.711,370165,1113.711,1,28.424,231.225,434.026,202.83,405.631,608.432
bas,stp,1,102008,bas_stp_run1_102008,BLUE,c,mc,blue,3600,372970,50659,56,blue,blue,blue,blue,1,689,blueBLUE,322.311,373659,1011.311,1,28.424,231.225,434.026,202.83,405.631,608.432
bas,stp,1,102008,bas_stp_run1_102008,RED,c,mc,red,1200,378969,50659,57,red,red,red,red,1,683.5,redRED,328.31,379652.5,1011.81,1,28.424,231.225,434.026,202.83,405.631,608.432
bas,stp,1,102008,bas_stp_run1_102008,GREEN,i,pc50,pink,2400,382568,50659,58,pink,pink,pink,pink,1,796.5,pinkGREEN,331.909,383364.5,1128.409,1,28.424,231.225,434.026,202.83,405.631,608.432
bas,stp,1,102008,bas_stp_run1_102008,YELLOW,i,pc50,black,3600,387368,50659,59,black,black,black,black,1,894,blackYELLOW,336.709,388262,1230.709,1,28.424,231.225,434.026,202.83,405.631,608.432
bas,stp,1,102008,bas_stp_run1_102008,RED,i,mc,white,3600,393383,50659,60,white,white,white,white,1,789.5,whiteRED,342.724,394172.5,1132.224,1,28.424,231.225,434.026,202.83,405.631,608.432
bas,stp,1,102008,bas_stp_run1_102008,BLUE,i,mc,red,2400,399382,50659,61,red,red,red,red,1,940,redBLUE,348.723,400322,1288.723,1,28.424,231.225,434.026,202.83,405.631,608.432
bas,stp,1,102008,bas_stp_run1_102008,PURPLE,c,mc,purple,1200,404182,50659,62,purple,purple,purple,purple,1,931.5,purplePURPLE,353.523,405113.5,1285.023,1,28.424,231.225,434.026,202.83,405.631,608.432
bas,stp,1,102008,bas_stp_run1_102008,RED,c,mc,red,3600,407781,50659,63,red,red,red,red,1,856.5,redRED,357.122,408637.5,1213.622,1,28.424,231.225,434.026,202.83,405.631,608.432
bas,stp,1,102008,bas_stp_run1_102008,YELLOW,i,pc50,pink,2400,413780,50659,64,pink,pink,pink,pink,1,961.5,pinkYELLOW,363.121,414741.5,1324.621,1,28.424,231.225,434.026,202.83,405.631,608.432
bas,stp,1,102008,bas_stp_run1_102008,PURPLE,i,mc,white,3600,418579,50659,65,white,white,white,white,1,823.5,whitePURPLE,367.92,419402.5,1191.42,1,28.424,231.225,434.026,202.83,405.631,608.432
bas,stp,1,102008,bas_stp_run1_102008,GREEN,i,pc50,yellow,3600,424578,50659,66,yellow,yellow,yellow,yellow,1,886,yellowGREEN,373.919,425464,1259.919,1,28.424,231.225,434.026,202.83,405.631,608.432
bas,stp,1,102008,bas_stp_run1_102008,PINK,c,pc50,pink,1200,430577,50659,67,pink,pink,pink,pink,1,863.5,pinkPINK,379.918,431440.5,1243.418,1,28.424,231.225,434.026,202.83,405.631,608.432
bas,stp,1,102008,bas_stp_run1_102008,PURPLE,c,mc,purple,2400,434177,50659,68,purple- distorted,purple,purple,purple,1,837,purplePURPLE,383.518,435014,1220.518,1,28.424,231.225,434.026,202.83,405.631,608.432
bas,stp,1,102008,bas_stp_run1_102008,YELLOW,c,pc50,yellow,1200,438976,50659,69,yellow,yellow,yellow,yellow,1,793.5,yellowYELLOW,388.317,439769.5,1181.817,1,28.424,231.225,434.026,202.83,405.631,608.432
bas,stp,1,102008,bas_stp_run1_102008,YELLOW,c,pc50,yellow,3600,442575,50659,70,yellow,yellow,yellow,yellow,1,784.5,yellowYELLOW,391.916,443359.5,1176.416,1,28.424,231.225,434.026,202.83,405.631,608.432
bas,stp,1,102008,bas_stp_run1_102008,WHITE,i,mc,blue,2400,448575,50659,71,blue,blue,blue,blue,1,843,blueWHITE,397.916,449418,1240.916,1,28.424,231.225,434.026,202.83,405.631,608.432
bas,stp,1,102008,bas_stp_run1_102008,WHITE,c,mc,white,1200,453374,50659,72,white,white,white,white,1,849.5,whiteWHITE,402.715,454223.5,1252.215,1,28.424,231.225,434.026,202.83,405.631,608.432
bas,stp,1,102008,bas_stp_run1_102008,PURPLE,c,mc,purple,1200,486968,50659,73,purple,purple,purple,purple,1,1039.5,purplePURPLE,436.309,488007.5,1475.809,1,28.424,231.225,434.026,202.83,405.631,608.432
bas,stp,1,102008,bas_stp_run1_102008,BLUE,i,mc,purple,2400,490568,50659,74,purple,purple,purple,purple,1,1017.5,purpleBLUE,439.909,491585.5,1457.409,1,28.424,231.225,434.026,202.83,405.631,608.432
bas,stp,1,102008,bas_stp_run1_102008,PURPLE,c,mc,purple,2400,495384,50659,75,purple,purple,purple,purple,1,887.5,purplePURPLE,444.725,496271.5,1332.225,1,28.424,231.225,434.026,202.83,405.631,608.432
bas,stp,1,102008,bas_stp_run1_102008,PURPLE,i,mc,red,1200,500183,50659,76,red,red,red,red,1,1010,redPURPLE,449.524,501193,1459.524,1,28.424,231.225,434.026,202.83,405.631,608.432
bas,stp,1,102008,bas_stp_run1_102008,PURPLE,i,mc,white,3600,503782,50659,77,white,white,white,white,1,870,whitePURPLE,453.123,504652,1323.123,1,28.424,231.225,434.026,202.83,405.631,608.432
bas,stp,1,102008,bas_stp_run1_102008,GREEN,i,pc50,yellow,1200,509781,50659,78,yellow,yellow,yellow,yellow,1,849,yellowGREEN,459.122,510630,1308.122,1,28.424,231.225,434.026,202.83,405.631,608.432
bas,stp,1,102008,bas_stp_run1_102008,BLUE,c,mc,blue,3600,513381,50659,79,blue,blue,blue,blue,1,841.5,blueBLUE,462.722,514222.5,1304.222,1,28.424,231.225,434.026,202.83,405.631,608.432
bas,stp,1,102008,bas_stp_run1_102008,GREEN,i,pc50,pink,3600,519380,50659,80,pink,pink,pink,pink,1,800,pinkGREEN,468.721,520180,1268.721,1,28.424,231.225,434.026,202.83,405.631,608.432
bas,stp,1,102008,bas_stp_run1_102008,WHITE,c,mc,white,1200,525379,50659,81,white,white,white,white,1,780.5,whiteWHITE,474.72,526159.5,1255.22,1,28.424,231.225,434.026,202.83,405.631,608.432
bas,stp,1,102008,bas_stp_run1_102008,GREEN,c,pc50,green,2400,528978,50659,82,green,green,green,green,1,861.5,greenGREEN,478.319,529839.5,1339.819,1,28.424,231.225,434.026,202.83,405.631,608.432
bas,stp,1,102008,bas_stp_run1_102008,BLUE,i,mc,red,3600,533778,50659,83,red,red,red,red,1,878,redBLUE,483.119,534656,1361.119,1,28.424,231.225,434.026,202.83,405.631,608.432
bas,stp,1,102008,bas_stp_run1_102008,BLACK,c,pc50,black,2400,539777,50659,84,black,black,black,black,1,960,blackBLACK,489.118,540737,1449.118,1,28.424,231.225,434.026,202.83,405.631,608.432
bas,stp,1,102008,bas_stp_run1_102008,BLUE,c,mc,blue,1200,544576,50659,85,blue,blue,blue,blue,1,932.5,blueBLUE,493.917,545508.5,1426.417,1,28.424,231.225,434.026,202.83,405.631,608.432
bas,stp,1,102008,bas_stp_run1_102008,BLUE,c,mc,blue,1200,548175,50659,86,blue,blue,blue,blue,1,830.5,blueBLUE,497.516,549005.5,1328.016,1,28.424,231.225,434.026,202.83,405.631,608.432
bas,stp,1,102008,bas_stp_run1_102008,PINK,c,pc50,pink,2400,551775,50659,87,pink,pink,pink,pink,1,866,pinkPINK,501.116,552641,1367.116,1,28.424,231.225,434.026,202.83,405.631,608.432
bas,stp,1,102008,bas_stp_run1_102008,RED,c,mc,red,2400,556574,50659,88,green,green,red,green,0,851,redRED,505.915,557425,1356.915,0,28.424,231.225,434.026,202.83,405.631,608.432
bas,stp,1,102008,bas_stp_run1_102008,PINK,i,pc50,black,3600,561373,50659,89,black,black,black,black,1,884.5,blackPINK,510.714,562257.5,1395.214,1,28.424,231.225,434.026,202.83,405.631,608.432
bas,stp,1,102008,bas_stp_run1_102008,RED,c,mc,red,2400,567372,50659,90,red,red,red,red,1,790.5,redRED,516.713,568162.5,1307.213,1,28.424,231.225,434.026,202.83,405.631,608.432
bas,stp,1,102008,bas_stp_run1_102008,YELLOW,c,pc50,yellow,3600,572172,50659,91,yellow,yellow,yellow,yellow,1,775,yellowYELLOW,521.513,572947,1296.513,1,28.424,231.225,434.026,202.83,405.631,608.432
bas,stp,1,102008,bas_stp_run1_102008,BLUE,c,mc,blue,2400,578171,50659,92,"blue- muffled, hard to hear",pink,blue,blue,1,763.5,blueBLUE,527.512,578934.5,1291.012,1,28.424,231.225,434.026,202.83,405.631,608.432
bas,stp,1,102008,bas_stp_run1_102008,RED,c,mc,red,1200,582970,50659,93,red,red,red,red,1,682,redRED,532.311,583652,1214.311,1,28.424,231.225,434.026,202.83,405.631,608.432
bas,stp,1,102008,bas_stp_run1_102008,WHITE,i,mc,blue,3600,586569,50659,94,blue,blue,blue,blue,1,1008.5,blueWHITE,535.91,587577.5,1544.41,1,28.424,231.225,434.026,202.83,405.631,608.432
bas,stp,1,102008,bas_stp_run1_102008,BLUE,c,mc,blue,3600,592568,50659,95,blue,blue,blue,blue,1,904.5,blueBLUE,541.909,593472.5,1446.409,1,28.424,231.225,434.026,202.83,405.631,608.432
bas,stp,1,102008,bas_stp_run1_102008,PURPLE,c,mc,purple,1200,598584,50659,96,purple,purple,purple,purple,1,909.5,purplePURPLE,547.925,599493.5,1457.425,1,28.424,231.225,434.026,202.83,405.631,608.432
bas,stp,1,102008,bas_stp_run1_102008,WHITE,c,mc,white,3600,602183,50659,97,white,white,white,white,1,1036.5,whiteWHITE,551.524,603219.5,1588.024,1,28.424,231.225,434.026,202.83,405.631,608.432
bas,stp,1,102008,bas_stp_run1_102008,YELLOW,i,pc50,pink,2400,608183,50659,98,pink,pink,pink,pink,1,868,pinkYELLOW,557.524,609051,1425.524,1,28.424,231.225,434.026,202.83,405.631,608.432
bas,stp,1,102008,bas_stp_run1_102008,WHITE,c,mc,white,3600,612982,50659,99,white,white,white,white,1,980,whiteWHITE,562.323,613962,1542.323,1,28.424,231.225,434.026,202.83,405.631,608.432
bas,stp,1,102008,bas_stp_run1_102008,BLACK,i,pc50,green,3600,618981,50659,100,green,green,green,green,1,821.5,greenBLACK,568.322,619802.5,1389.822,1,28.424,231.225,434.026,202.83,405.631,608.432
bas,stp,1,102008,bas_stp_run1_102008,RED,i,mc,white,2400,624980,50659,101,white,white,white,white,1,950,whiteRED,574.321,625930,1524.321,1,28.424,231.225,434.026,202.83,405.631,608.432
bas,stp,1,102008,bas_stp_run1_102008,GREEN,c,pc50,green,2400,629779,50659,102,green,green,green,green,1,880.5,greenGREEN,579.12,630659.5,1459.62,1,28.424,231.225,434.026,202.83,405.631,608.432
bas,stp,1,102008,bas_stp_run1_102008,PURPLE,c,mc,purple,2400,634578,50659,103,purple,purple,purple,purple,1,839.5,purplePURPLE,583.919,635417.5,1423.419,1,28.424,231.225,434.026,202.83,405.631,608.432
bas,stp,1,102008,bas_stp_run1_102008,PURPLE,c,mc,purple,1200,639378,50659,104,purple- slightly distorted,purple,purple,purple,1,763.5,purplePURPLE,588.719,640141.5,1352.219,1,28.424,231.225,434.026,202.83,405.631,608.432
bas,stp,1,102008,bas_stp_run1_102008,YELLOW,i,pc50,black,1200,642977,50659,105,black,black,black,black,1,928.5,blackYELLOW,592.318,643905.5,1520.818,1,28.424,231.225,434.026,202.83,405.631,608.432
bas,stp,1,102008,bas_stp_run1_102008,RED,c,mc,red,1200,646576,50659,106,red,white,red,red,1,918,redRED,595.917,647494,1513.917,1,28.424,231.225,434.026,202.83,405.631,608.432
bas,stp,1,102008,bas_stp_run1_102008,WHITE,c,mc,white,1200,650176,50659,107,white,white,white,white,1,851,whiteWHITE,599.517,651027,1450.517,1,28.424,231.225,434.026,202.83,405.631,608.432
bas,stp,1,102008,bas_stp_run1_102008,YELLOW,c,pc50,yellow,3600,653775,50659,108,yellow,yellow,yellow,yellow,1,797,yellowYELLOW,603.116,654572,1400.116,1,28.424,231.225,434.026,202.83,405.631,608.432
bas,stp,2,102008,bas_stp_run2_102008,PURPLE,i,mc,blue,2400,64300,33571,1,"green- scanner makes loud noise, obscuring beginning of utterance",blue,blue,blue,1,890,bluePURPLE,30.729,65190,920.729,1,28.429,231.23,434.032,202.835,405.653,608.437
bas,stp,2,102008,bas_stp_run2_102008,BLUE,c,mc,blue,3600,69099,33571,2,unintelligible- possibly green,green,blue,blue,1,836.5,blueBLUE,35.528,69935.5,872.028,1,28.429,231.23,434.032,202.835,405.653,608.437
bas,stp,2,102008,bas_stp_run2_102008,PINK,i,pc50,yellow,2400,75098,33571,3,yellow,white,yellow,yellow,1,975,yellowPINK,41.527,76073,1016.527,1,28.429,231.23,434.032,202.835,405.653,608.437
bas,stp,2,102008,bas_stp_run2_102008,GREEN,i,pc50,black,2400,79897,33571,4,black,black,black,black,1,799.5,blackGREEN,46.326,80696.5,845.826,1,28.429,231.23,434.032,202.835,405.653,608.437
bas,stp,2,102008,bas_stp_run2_102008,PINK,c,pc50,pink,3600,84697,33571,5,pink,pink,pink,pink,1,695,pinkPINK,51.126,85392,746.126,1,28.429,231.23,434.032,202.835,405.653,608.437
bas,stp,2,102008,bas_stp_run2_102008,RED,c,mc,red,1200,90696,33571,6,red,red,red,red,1,779.5,redRED,57.125,91475.5,836.625,1,28.429,231.23,434.032,202.835,405.653,608.437
bas,stp,2,102008,bas_stp_run2_102008,RED,i,mc,blue,1200,94295,33571,7,"blue- muffled, hard to hear",blue,blue,blue,1,929,blueRED,60.724,95224,989.724,1,28.429,231.23,434.032,202.835,405.653,608.437
bas,stp,2,102008,bas_stp_run2_102008,RED,c,mc,red,3600,97894,33571,8,red,red,red,red,1,690.5,redRED,64.323,98584.5,754.823,1,28.429,231.23,434.032,202.835,405.653,608.437
bas,stp,2,102008,bas_stp_run2_102008,BLUE,c,mc,blue,2400,103894,33571,9,"unintelligible- unenunciated, possibly green?",blue,blue,blue,1,831,blueBLUE,70.323,104725,901.323,1,28.429,231.23,434.032,202.835,405.653,608.437
bas,stp,2,102008,bas_stp_run2_102008,RED,c,mc,red,1200,108693,33571,10,red,red,red,red,1,735,redRED,75.122,109428,810.122,1,28.429,231.23,434.032,202.835,405.653,608.437
bas,stp,2,102008,bas_stp_run2_102008,BLUE,c,mc,blue,3600,112292,33571,11,"blue- muffled, hard to hear",green,blue,blue,1,709,blueBLUE,78.721,113001,787.721,1,28.429,231.23,434.032,202.835,405.653,608.437
bas,stp,2,102008,bas_stp_run2_102008,BLUE,i,mc,white,1200,118291,33571,12,white,white,white,white,1,758,whiteBLUE,84.72,119049,842.72,1,28.429,231.23,434.032,202.835,405.653,608.437
bas,stp,2,102008,bas_stp_run2_102008,PURPLE,c,mc,purple,1200,121891,33571,13,purple- distorted,purple,purple,purple,1,998,purplePURPLE,88.32,122889,1086.32,1,28.429,231.23,434.032,202.835,405.653,608.437
bas,stp,2,102008,bas_stp_run2_102008,GREEN,c,pc50,green,1200,125490,33571,14,green,green,green,green,1,655.5,greenGREEN,91.919,126145.5,747.419,1,28.429,231.23,434.032,202.835,405.653,608.437
bas,stp,2,102008,bas_stp_run2_102008,RED,c,mc,red,3600,129090,33571,15,red,red,red,red,1,693,redRED,95.519,129783,788.519,1,28.429,231.23,434.032,202.835,405.653,608.437
bas,stp,2,102008,bas_stp_run2_102008,BLACK,i,pc50,pink,3600,135089,33571,16,pink,pink,pink,pink,1,763,pinkBLACK,101.518,135852,864.518,1,28.429,231.23,434.032,202.835,405.653,608.437
bas,stp,2,102008,bas_stp_run2_102008,PINK,i,pc50,green,2400,141088,33571,17,green,green,green,green,1,938,greenPINK,107.517,142026,1045.517,1,28.429,231.23,434.032,202.835,405.653,608.437
bas,stp,2,102008,bas_stp_run2_102008,RED,c,mc,red,2400,145887,33571,18,red,red,red,red,1,693,redRED,112.316,146580,805.316,1,28.429,231.23,434.032,202.835,405.653,608.437
bas,stp,2,102008,bas_stp_run2_102008,BLACK,c,pc50,black,1200,150686,33571,19,black,black,black,black,1,705.5,blackBLACK,117.115,151391.5,822.615,1,28.429,231.23,434.032,202.835,405.653,608.437
bas,stp,2,102008,bas_stp_run2_102008,PINK,c,pc50,pink,1200,154286,33571,20,pink- distorted,pink,pink,pink,1,674.5,pinkPINK,120.715,154960.5,795.215,1,28.429,231.23,434.032,202.835,405.653,608.437
bas,stp,2,102008,bas_stp_run2_102008,BLACK,c,pc50,black,2400,157885,33571,21,black,unkown,black,black,1,640,blackBLACK,124.314,158525,764.314,1,28.429,231.23,434.032,202.835,405.653,608.437
bas,stp,2,102008,bas_stp_run2_102008,PURPLE,c,mc,purple,2400,162701,33571,22,purple- distorted,purple distortion,purple,purple,1,892,purplePURPLE,129.13,163593,1021.13,1,28.429,231.23,434.032,202.835,405.653,608.437
bas,stp,2,102008,bas_stp_run2_102008,RED,i,mc,purple,3600,167500,33571,23,purple- distorted,purple,purple,purple,1,1083.5,purpleRED,133.929,168583.5,1217.429,1,28.429,231.23,434.032,202.835,405.653,608.437
bas,stp,2,102008,bas_stp_run2_102008,PURPLE,c,mc,purple,3600,173499,33571,24,purple,purple,purple,purple,1,1086,purplePURPLE,139.928,174585,1225.928,1,28.429,231.23,434.032,202.835,405.653,608.437
bas,stp,2,102008,bas_stp_run2_102008,WHITE,c,mc,white,2400,179498,33571,25,white,white,white,white,1,929.5,whiteWHITE,145.927,180427.5,1075.427,1,28.429,231.23,434.032,202.835,405.653,608.437
bas,stp,2,102008,bas_stp_run2_102008,PURPLE,c,mc,purple,3600,184297,33571,26,purple- distorted,purple,purple,purple,1,912,purplePURPLE,150.726,185209,1062.726,1,28.429,231.23,434.032,202.835,405.653,608.437
bas,stp,2,102008,bas_stp_run2_102008,WHITE,i,mc,purple,2400,190296,33571,27,purple- distorted,purple,purple,purple,1,869,purpleWHITE,156.725,191165,1025.725,1,28.429,231.23,434.032,202.835,405.653,608.437
bas,stp,2,102008,bas_stp_run2_102008,WHITE,c,mc,white,1200,195096,33571,28,white,white,white,white,1,758.5,whiteWHITE,161.525,195854.5,920.025,1,28.429,231.23,434.032,202.835,405.653,608.437
bas,stp,2,102008,bas_stp_run2_102008,BLUE,c,mc,blue,2400,198695,33571,29,"blue- muffled, hard to hear",blue,blue,blue,1,840,blueBLUE,165.124,199535,1005.124,1,28.429,231.23,434.032,202.835,405.653,608.437
bas,stp,2,102008,bas_stp_run2_102008,YELLOW,i,pc50,green,1200,203494,33571,30,green,green,green,green,1,1039,greenYELLOW,169.923,204533,1208.923,1,28.429,231.23,434.032,202.835,405.653,608.437
bas,stp,2,102008,bas_stp_run2_102008,WHITE,c,mc,white,1200,207094,33571,31,white,white,white,white,1,847.5,whiteWHITE,173.523,207941.5,1021.023,1,28.429,231.23,434.032,202.835,405.653,608.437
bas,stp,2,102008,bas_stp_run2_102008,BLACK,i,pc50,yellow,2400,210693,33571,32,yellow,yellow,yellow,yellow,1,1021,yellowBLACK,177.122,211714,1198.122,1,28.429,231.23,434.032,202.835,405.653,608.437
bas,stp,2,102008,bas_stp_run2_102008,WHITE,c,mc,white,3600,215492,33571,33,white,white,white,white,1,852.5,whiteWHITE,181.921,216344.5,1034.421,1,28.429,231.23,434.032,202.835,405.653,608.437
bas,stp,2,102008,bas_stp_run2_102008,YELLOW,c,pc50,yellow,3600,221492,33571,34,yellow,yellow,yellow,yellow,1,923.5,yellowYELLOW,187.921,222415.5,1111.421,1,28.429,231.23,434.032,202.835,405.653,608.437
bas,stp,2,102008,bas_stp_run2_102008,WHITE,c,mc,white,3600,227491,33571,35,white,white,white,white,1,894.5,whiteWHITE,193.92,228385.5,1088.42,1,28.429,231.23,434.032,202.835,405.653,608.437
bas,stp,2,102008,bas_stp_run2_102008,WHITE,i,mc,red,1200,233490,33571,36,red,pink,red,red,1,1007.5,redWHITE,199.919,234497.5,1207.419,1,28.429,231.23,434.032,202.835,405.653,608.437
bas,stp,2,102008,bas_stp_run2_102008,WHITE,c,mc,white,3600,267101,33571,37,white,white,white,white,1,1202.5,whiteWHITE,233.53,268303.5,1436.03,1,28.429,231.23,434.032,202.835,405.653,608.437
bas,stp,2,102008,bas_stp_run2_102008,BLUE,c,mc,blue,1200,273100,33571,38,"blue- muffled, hard to hear",blue,blue,blue,1,803,blueBLUE,239.529,273903,1042.529,1,28.429,231.23,434.032,202.835,405.653,608.437
bas,stp,2,102008,bas_stp_run2_102008,WHITE,c,mc,white,3600,276699,33571,39,white,white,white,white,1,776,whiteWHITE,243.128,277475,1019.128,1,28.429,231.23,434.032,202.835,405.653,608.437
bas,stp,2,102008,bas_stp_run2_102008,GREEN,i,pc50,black,1200,282698,33571,40,black,black,black,black,1,746.5,blackGREEN,249.127,283444.5,995.627,1,28.429,231.23,434.032,202.835,405.653,608.437
bas,stp,2,102008,bas_stp_run2_102008,RED,c,mc,red,2400,286298,33571,41,red,red,red,red,1,667,redRED,252.727,286965,919.727,1,28.429,231.23,434.032,202.835,405.653,608.437
bas,stp,2,102008,bas_stp_run2_102008,WHITE,c,mc,white,1200,291097,33571,42,white,white,white,white,1,740,whiteWHITE,257.526,291837,997.526,1,28.429,231.23,434.032,202.835,405.653,608.437
bas,stp,2,102008,bas_stp_run2_102008,BLACK,c,pc50,black,2400,294697,33571,43,black,black,black,black,1,670,blackBLACK,261.126,295367,931.126,1,28.429,231.23,434.032,202.835,405.653,608.437
bas,stp,2,102008,bas_stp_run2_102008,RED,i,mc,purple,3600,299496,33571,44,purple- distorted,purple,purple,purple,1,851.5,purpleRED,265.925,300347.5,1117.425,1,28.429,231.23,434.032,202.835,405.653,608.437
bas,stp,2,102008,bas_stp_run2_102008,BLACK,c,pc50,black,2400,305495,33571,45,black,black,black,black,1,974,blackBLACK,271.924,306469,1245.924,1,28.429,231.23,434.032,202.835,405.653,608.437
bas,stp,2,102008,bas_stp_run2_102008,RED,i,mc,blue,2400,310294,33571,46,"blue- muffled, possibly green",blue,blue,blue,1,1010.5,blueRED,276.723,311304.5,1287.223,1,28.429,231.23,434.032,202.835,405.653,608.437
bas,stp,2,102008,bas_stp_run2_102008,BLUE,c,mc,blue,1200,315093,33571,47,green- muffled,blue,blue,blue,1,1010.5,blueBLUE,281.522,316103.5,1292.022,1,28.429,231.23,434.032,202.835,405.653,608.437
bas,stp,2,102008,bas_stp_run2_102008,PINK,c,pc50,pink,3600,318693,33571,48,pink- distorted,pink,pink,pink,1,648.5,pinkPINK,285.122,319341.5,933.622,1,28.429,231.23,434.032,202.835,405.653,608.437
bas,stp,2,102008,bas_stp_run2_102008,PINK,c,pc50,pink,3600,324692,33571,49,pink- distorted,pink,pink,pink,1,703.5,pinkPINK,291.121,325395.5,994.621,1,28.429,231.23,434.032,202.835,405.653,608.437
bas,stp,2,102008,bas_stp_run2_102008,PINK,i,pc50,green,2400,330691,33571,50,green- muffled,green,green,green,1,845,greenPINK,297.12,331536,1142.12,1,28.429,231.23,434.032,202.835,405.653,608.437
bas,stp,2,102008,bas_stp_run2_102008,WHITE,c,mc,white,1200,335490,33571,51,white,white,white,white,1,1007,whiteWHITE,301.919,336497,1308.919,1,28.429,231.23,434.032,202.835,405.653,608.437
bas,stp,2,102008,bas_stp_run2_102008,PURPLE,c,mc,purple,3600,339090,33571,52,purple- slightly distorted,purple,purple,purple,1,775.5,purplePURPLE,305.519,339865.5,1081.019,1,28.429,231.23,434.032,202.835,405.653,608.437
bas,stp,2,102008,bas_stp_run2_102008,PURPLE,c,mc,purple,3600,345089,33571,53,purple,purple,purple,purple,1,624,purplePURPLE,311.518,345713,935.518,1,28.429,231.23,434.032,202.835,405.653,608.437
bas,stp,2,102008,bas_stp_run2_102008,BLUE,i,mc,white,1200,351088,33571,54,white,white,white,white,1,1063.5,whiteBLUE,317.517,352151.5,1381.017,1,28.429,231.23,434.032,202.835,405.653,608.437
bas,stp,2,102008,bas_stp_run2_102008,PURPLE,c,mc,purple,2400,354687,33571,55,purple- slightly distorted,purple,purple,purple,1,1094,purplePURPLE,321.116,355781,1415.116,1,28.429,231.23,434.032,202.835,405.653,608.437
bas,stp,2,102008,bas_stp_run2_102008,WHITE,i,mc,purple,1200,359486,33571,56,purple,purple,purple,purple,1,916.5,purpleWHITE,325.915,360402.5,1242.415,1,28.429,231.23,434.032,202.835,405.653,608.437
bas,stp,2,102008,bas_stp_run2_102008,BLUE,c,mc,blue,3600,363086,33571,57,unintelligible,white,blue,"",unintelligible,900,blueBLUE,329.515,363986,1229.515,,28.429,231.23,434.032,202.835,405.653,608.437
bas,stp,2,102008,bas_stp_run2_102008,PINK,i,pc50,yellow,2400,369085,33571,58,yellow,yellow,yellow,yellow,1,1059,yellowPINK,335.514,370144,1394.514,1,28.429,231.23,434.032,202.835,405.653,608.437
bas,stp,2,102008,bas_stp_run2_102008,WHITE,i,mc,red,1200,373901,33571,59,red,red,red,red,1,965.5,redWHITE,340.33,374866.5,1305.83,1,28.429,231.23,434.032,202.835,405.653,608.437
bas,stp,2,102008,bas_stp_run2_102008,BLUE,c,mc,blue,2400,377500,33571,60,unintelligible,yellow,blue,blue,1,840.5,blueBLUE,343.929,378340.5,1184.429,1,28.429,231.23,434.032,202.835,405.653,608.437
bas,stp,2,102008,bas_stp_run2_102008,RED,c,mc,red,1200,382299,33571,61,red- muffled,red,red,red,1,1079.5,redRED,348.728,383378.5,1428.228,1,28.429,231.23,434.032,202.835,405.653,608.437
bas,stp,2,102008,bas_stp_run2_102008,YELLOW,i,pc50,green,1200,385899,33571,62,green- muffled,green,green,green,1,994.5,greenYELLOW,352.328,386893.5,1346.828,1,28.429,231.23,434.032,202.835,405.653,608.437
bas,stp,2,102008,bas_stp_run2_102008,PURPLE,i,mc,blue,3600,389498,33571,63,blue- muffled,blue,blue,blue,1,961,bluePURPLE,355.927,390459,1316.927,1,28.429,231.23,434.032,202.835,405.653,608.437
bas,stp,2,102008,bas_stp_run2_102008,PURPLE,c,mc,purple,1200,395497,33571,64,purple,purple,purple,purple,1,964.5,purplePURPLE,361.926,396461.5,1326.426,1,28.429,231.23,434.032,202.835,405.653,608.437
bas,stp,2,102008,bas_stp_run2_102008,BLACK,i,pc50,yellow,1200,399097,33571,65,yellow,yellow,yellow,yellow,1,842,yellowBLACK,365.526,399939,1207.526,1,28.429,231.23,434.032,202.835,405.653,608.437
bas,stp,2,102008,bas_stp_run2_102008,BLACK,i,pc50,pink,3600,402696,33571,66,pink,pink,pink,pink,1,776.5,pinkBLACK,369.125,403472.5,1145.625,1,28.429,231.23,434.032,202.835,405.653,608.437
bas,stp,2,102008,bas_stp_run2_102008,RED,c,mc,red,2400,408695,33571,67,red,red,red,red,1,1080,redRED,375.124,409775,1455.124,1,28.429,231.23,434.032,202.835,405.653,608.437
bas,stp,2,102008,bas_stp_run2_102008,GREEN,c,pc50,green,3600,413494,33571,68,green,green,green,green,1,881.5,greenGREEN,379.923,414375.5,1261.423,1,28.429,231.23,434.032,202.835,405.653,608.437
bas,stp,2,102008,bas_stp_run2_102008,YELLOW,c,pc50,yellow,2400,419493,33571,69,yellow,yellow,yellow,yellow,1,1082,yellowYELLOW,385.922,420575,1467.922,1,28.429,231.23,434.032,202.835,405.653,608.437
bas,stp,2,102008,bas_stp_run2_102008,RED,c,mc,red,3600,424293,33571,70,red,white,red,red,1,1086.5,redRED,390.722,425379.5,1477.222,1,28.429,231.23,434.032,202.835,405.653,608.437
bas,stp,2,102008,bas_stp_run2_102008,RED,c,mc,red,2400,430292,33571,71,red- muffled,red,red,red,1,1411.5,redRED,396.721,431703.5,1808.221,1,28.429,231.23,434.032,202.835,405.653,608.437
bas,stp,2,102008,bas_stp_run2_102008,WHITE,c,mc,white,2400,435091,33571,72,white,white,white,white,1,863,whiteWHITE,401.52,435954,1264.52,1,28.429,231.23,434.032,202.835,405.653,608.437
bas,stp,2,102008,bas_stp_run2_102008,PINK,c,pc50,pink,3600,469885,33571,73,pink,pink,pink,pink,1,754,pinkPINK,436.314,470639,1190.314,1,28.429,231.23,434.032,202.835,405.653,608.437
bas,stp,2,102008,bas_stp_run2_102008,BLACK,c,pc50,black,3600,475885,33571,74,black,black,black,black,1,820.5,blackBLACK,442.314,476705.5,1262.814,1,28.429,231.23,434.032,202.835,405.653,608.437
bas,stp,2,102008,bas_stp_run2_102008,PURPLE,c,mc,purple,2400,481900,33571,75,purple,purple,purple,purple,1,879.5,purplePURPLE,448.329,482779.5,1327.829,1,28.429,231.23,434.032,202.835,405.653,608.437
bas,stp,2,102008,bas_stp_run2_102008,PINK,i,pc50,yellow,1200,486699,33571,76,yellow,yellow,yellow,yellow,1,915.5,yellowPINK,453.128,487614.5,1368.628,1,28.429,231.23,434.032,202.835,405.653,608.437
bas,stp,2,102008,bas_stp_run2_102008,WHITE,c,mc,white,2400,490299,33571,77,white,white,white,white,1,769.5,whiteWHITE,456.728,491068.5,1226.228,1,28.429,231.23,434.032,202.835,405.653,608.437
bas,stp,2,102008,bas_stp_run2_102008,BLACK,c,pc50,black,3600,495098,33571,78,black,black,black,black,1,972,blackBLACK,461.527,496070,1433.527,1,28.429,231.23,434.032,202.835,405.653,608.437
bas,stp,2,102008,bas_stp_run2_102008,GREEN,c,pc50,green,1200,501097,33571,79,green,green,green,green,1,921,greenGREEN,467.526,502018,1388.526,1,28.429,231.23,434.032,202.835,405.653,608.437
bas,stp,2,102008,bas_stp_run2_102008,PINK,i,pc50,green,2400,504697,33571,80,green,green,green,green,1,1070,greenPINK,471.126,505767,1541.126,1,28.429,231.23,434.032,202.835,405.653,608.437
bas,stp,2,102008,bas_stp_run2_102008,BLUE,c,mc,blue,1200,509496,33571,81,"blue- muffled, hard to hear",blue,blue,blue,1,748,blueBLUE,475.925,510244,1223.925,1,28.429,231.23,434.032,202.835,405.653,608.437
bas,stp,2,102008,bas_stp_run2_102008,RED,c,mc,red,2400,513095,33571,82,red,red,red,red,1,1042.5,redRED,479.524,514137.5,1522.024,1,28.429,231.23,434.032,202.835,405.653,608.437
bas,stp,2,102008,bas_stp_run2_102008,BLACK,i,pc50,pink,3600,517895,33571,83,pink- distorted,pink,pink,pink,1,772,pinkBLACK,484.324,518667,1256.324,1,28.429,231.23,434.032,202.835,405.653,608.437
bas,stp,2,102008,bas_stp_run2_102008,RED,c,mc,red,1200,523894,33571,84,red,red,red,red,1,768.5,redRED,490.323,524662.5,1258.823,1,28.429,231.23,434.032,202.835,405.653,608.437
bas,stp,2,102008,bas_stp_run2_102008,WHITE,c,mc,white,2400,527493,33571,85,white,white,white,white,1,758,whiteWHITE,493.922,528251,1251.922,1,28.429,231.23,434.032,202.835,405.653,608.437
bas,stp,2,102008,bas_stp_run2_102008,YELLOW,c,pc50,yellow,1200,532292,33571,86,yellow,yellow,yellow,yellow,1,663,yellowYELLOW,498.721,532955,1161.721,1,28.429,231.23,434.032,202.835,405.653,608.437
bas,stp,2,102008,bas_stp_run2_102008,BLUE,i,mc,white,3600,535892,33571,87,white,white,white,white,1,818.5,whiteBLUE,502.321,536710.5,1320.821,1,28.429,231.23,434.032,202.835,405.653,608.437
bas,stp,2,102008,bas_stp_run2_102008,RED,i,mc,purple,2400,541891,33571,88,purple- distorted,purple,purple,purple,1,852.5,purpleRED,508.32,542743.5,1360.82,1,28.429,231.23,434.032,202.835,405.653,608.437
bas,stp,2,102008,bas_stp_run2_102008,PINK,c,pc50,pink,3600,546690,33571,89,pink,pink,pink,pink,1,815.5,pinkPINK,513.119,547505.5,1328.619,1,28.429,231.23,434.032,202.835,405.653,608.437
bas,stp,2,102008,bas_stp_run2_102008,PURPLE,i,mc,blue,3600,552689,33571,90,green- muffled,blue,blue,blue,1,933,bluePURPLE,519.118,553622,1452.118,1,28.429,231.23,434.032,202.835,405.653,608.437
bas,stp,2,102008,bas_stp_run2_102008,BLUE,c,mc,blue,2400,558688,33571,91,green- muffled,blue,blue,blue,1,944.5,blueBLUE,525.117,559632.5,1469.617,1,28.429,231.23,434.032,202.835,405.653,608.437
bas,stp,2,102008,bas_stp_run2_102008,RED,i,mc,blue,1200,563487,33571,92,blue,blue,blue,blue,1,1002.5,blueRED,529.916,564489.5,1532.416,1,28.429,231.23,434.032,202.835,405.653,608.437
bas,stp,2,102008,bas_stp_run2_102008,BLUE,c,mc,blue,2400,567087,33571,93,"blue- muffled, hard to hear",blue,blue,blue,1,825,blueBLUE,533.516,567912,1358.516,1,28.429,231.23,434.032,202.835,405.653,608.437
bas,stp,2,102008,bas_stp_run2_102008,RED,c,mc,red,1200,571886,33571,94,red,red,red,red,1,853.5,redRED,538.315,572739.5,1391.815,1,28.429,231.23,434.032,202.835,405.653,608.437
bas,stp,2,102008,bas_stp_run2_102008,WHITE,c,mc,white,1200,575485,33571,95,white,white,white,white,1,758.5,whiteWHITE,541.914,576243.5,1300.414,1,28.429,231.23,434.032,202.835,405.653,608.437
bas,stp,2,102008,bas_stp_run2_102008,WHITE,c,mc,white,3600,579085,33571,96,white,white,white,white,1,687.5,whiteWHITE,545.514,579772.5,1233.014,1,28.429,231.23,434.032,202.835,405.653,608.437
bas,stp,2,102008,bas_stp_run2_102008,WHITE,i,mc,red,2400,585101,33571,97,red,red,red,red,1,877.5,redWHITE,551.53,585978.5,1429.03,1,28.429,231.23,434.032,202.835,405.653,608.437
bas,stp,2,102008,bas_stp_run2_102008,PURPLE,c,mc,purple,1200,589900,33571,98,purple- slightly distorted,purple,purple,purple,1,932.5,purplePURPLE,556.329,590832.5,1488.829,1,28.429,231.23,434.032,202.835,405.653,608.437
bas,stp,2,102008,bas_stp_run2_102008,WHITE,c,mc,white,3600,593499,33571,99,white,white,white,white,1,747.5,whiteWHITE,559.928,594246.5,1307.428,1,28.429,231.23,434.032,202.835,405.653,608.437
bas,stp,2,102008,bas_stp_run2_102008,GREEN,i,pc50,black,2400,599498,33571,100,black,black,black,black,1,1005,blackGREEN,565.927,600503,1570.927,1,28.429,231.23,434.032,202.835,405.653,608.437
bas,stp,2,102008,bas_stp_run2_102008,YELLOW,i,pc50,green,2400,604297,33571,101,green,green,green,green,1,1017.5,greenYELLOW,570.726,605314.5,1588.226,1,28.429,231.23,434.032,202.835,405.653,608.437
bas,stp,2,102008,bas_stp_run2_102008,BLUE,c,mc,blue,3600,609097,33571,102,blue- muffled,blue,blue,blue,1,950.5,blueBLUE,575.526,610047.5,1526.026,1,28.429,231.23,434.032,202.835,405.653,608.437
bas,stp,2,102008,bas_stp_run2_102008,RED,c,mc,red,1200,615096,33571,103,red- muffled,black,red,red,1,882.5,redRED,581.525,615978.5,1464.025,1,28.429,231.23,434.032,202.835,405.653,608.437
bas,stp,2,102008,bas_stp_run2_102008,WHITE,i,mc,purple,1200,618695,33571,104,purple,purple,purple,purple,1,922,purpleWHITE,585.124,619617,1507.124,1,28.429,231.23,434.032,202.835,405.653,608.437
bas,stp,2,102008,bas_stp_run2_102008,BLACK,i,pc50,yellow,3600,622295,33571,105,yellow,yellow,yellow,yellow,1,927.5,yellowBLACK,588.724,623222.5,1516.224,1,28.429,231.23,434.032,202.835,405.653,608.437
bas,stp,2,102008,bas_stp_run2_102008,RED,c,mc,red,3600,628294,33571,106,red- exhales sharply after,white,red,red,1,766,redRED,594.723,629060,1360.723,1,28.429,231.23,434.032,202.835,405.653,608.437
bas,stp,2,102008,bas_stp_run2_102008,PURPLE,c,mc,purple,1200,634293,33571,107,purple- distorted,purple,purple,purple,1,1257.5,purplePURPLE,600.722,635550.5,1858.222,1,28.429,231.23,434.032,202.835,405.653,608.437
bas,stp,2,102008,bas_stp_run2_102008,PURPLE,c,mc,purple,2400,637892,33571,108,purple- distorted,yellow,purple,purple,1,974.5,purplePURPLE,604.321,638866.5,1578.821,1,28.429,231.23,434.032,202.835,405.653,608.437
bas,stp,1,107321,bas_stp_run1_107321,PINK,i,pc50,black,2400,109777,79068,1,red,red,black,red,0,845.5,blackPINK,30.709,110622.5,876.209,0,28.416,231.213,434.01,202.827,405.624,608.434
bas,stp,1,107321,bas_stp_run1_107321,PINK,c,pc50,pink,3600,114577,79068,2,pink,pink,pink,pink,1,715,pinkPINK,35.509,115292,750.509,1,28.416,231.213,434.01,202.827,405.624,608.434
bas,stp,1,107321,bas_stp_run1_107321,BLUE,c,mc,blue,1200,120577,79068,3,blue,blue,blue,blue,1,687.5,blueBLUE,41.509,121264.5,729.009,1,28.416,231.213,434.01,202.827,405.624,608.434
bas,stp,1,107321,bas_stp_run1_107321,RED,c,mc,red,3600,124177,79068,4,red - distorted,red,red,red,1,588.5,redRED,45.109,124765.5,633.609,1,28.416,231.213,434.01,202.827,405.624,608.434
bas,stp,1,107321,bas_stp_run1_107321,BLUE,c,mc,blue,2400,130177,79068,5,blue,blue,blue,blue,1,765,blueBLUE,51.109,130942,816.109,1,28.416,231.213,434.01,202.827,405.624,608.434
bas,stp,1,107321,bas_stp_run1_107321,RED,c,mc,red,3600,134977,79068,6,red,red,red,red,1,634,redRED,55.909,135611,689.909,1,28.416,231.213,434.01,202.827,405.624,608.434
bas,stp,1,107321,bas_stp_run1_107321,WHITE,c,mc,white,1200,140977,79068,7,white,white,white,white,1,678.5,whiteWHITE,61.909,141655.5,740.409,1,28.416,231.213,434.01,202.827,405.624,608.434
bas,stp,1,107321,bas_stp_run1_107321,PURPLE,i,mc,red,1200,144577,79068,8,red,red,red,red,1,885,redPURPLE,65.509,145462,950.509,1,28.416,231.213,434.01,202.827,405.624,608.434
bas,stp,1,107321,bas_stp_run1_107321,PURPLE,c,mc,purple,2400,148176,79068,9,purple,purple,purple,purple,1,760.5,purplePURPLE,69.108,148936.5,829.608,1,28.416,231.213,434.01,202.827,405.624,608.434
bas,stp,1,107321,bas_stp_run1_107321,YELLOW,c,pc50,yellow,2400,152976,79068,10,yellow,yellow,yellow,yellow,1,674,yellowYELLOW,73.908,153650,747.908,1,28.416,231.213,434.01,202.827,405.624,608.434
bas,stp,1,107321,bas_stp_run1_107321,WHITE,c,mc,white,1200,157776,79068,11,white,white,white,white,1,688.5,whiteWHITE,78.708,158464.5,767.208,1,28.416,231.213,434.01,202.827,405.624,608.434
bas,stp,1,107321,bas_stp_run1_107321,WHITE,c,mc,white,3600,161376,79068,12,white,white,white,white,1,700.5,whiteWHITE,82.308,162076.5,782.808,1,28.416,231.213,434.01,202.827,405.624,608.434
bas,stp,1,107321,bas_stp_run1_107321,GREEN,c,pc50,green,3600,167376,79068,13,green,green,green,green,1,767.5,greenGREEN,88.308,168143.5,855.808,1,28.416,231.213,434.01,202.827,405.624,608.434
bas,stp,1,107321,bas_stp_run1_107321,WHITE,c,mc,white,1200,173376,79068,14,white,white,white,white,1,699.5,whiteWHITE,94.308,174075.5,793.808,1,28.416,231.213,434.01,202.827,405.624,608.434
bas,stp,1,107321,bas_stp_run1_107321,PURPLE,c,mc,purple,1200,176976,79068,15,purple,purple,purple,purple,1,822.5,purplePURPLE,97.908,177798.5,920.408,1,28.416,231.213,434.01,202.827,405.624,608.434
bas,stp,1,107321,bas_stp_run1_107321,BLACK,i,pc50,green,1200,180576,79068,16,green,green,green,green,1,939.5,greenBLACK,101.508,181515.5,1041.008,1,28.416,231.213,434.01,202.827,405.624,608.434
bas,stp,1,107321,bas_stp_run1_107321,GREEN,i,pc50,pink,3600,184176,79068,17,pink,pink,pink,pink,1,894.5,pinkGREEN,105.108,185070.5,999.608,1,28.416,231.213,434.01,202.827,405.624,608.434
bas,stp,1,107321,bas_stp_run1_107321,BLUE,i,mc,purple,1200,190176,79068,18,purple,purple,purple,purple,1,919,purpleBLUE,111.108,191095,1030.108,1,28.416,231.213,434.01,202.827,405.624,608.434
bas,stp,1,107321,bas_stp_run1_107321,GREEN,i,pc50,yellow,3600,193776,79068,19,yellow,yellow,yellow,yellow,1,748.5,yellowGREEN,114.708,194524.5,863.208,1,28.416,231.213,434.01,202.827,405.624,608.434
bas,stp,1,107321,bas_stp_run1_107321,RED,c,mc,red,2400,199776,79068,20,red,red,red,red,1,824,redRED,120.708,200600,944.708,1,28.416,231.213,434.01,202.827,405.624,608.434
bas,stp,1,107321,bas_stp_run1_107321,PURPLE,c,mc,purple,2400,204576,79068,21,purple,purple,purple,purple,1,819.5,purplePURPLE,125.508,205395.5,945.008,1,28.416,231.213,434.01,202.827,405.624,608.434
bas,stp,1,107321,bas_stp_run1_107321,RED,c,mc,red,2400,209376,79068,22,red,red,red,red,1,957.5,redRED,130.308,210333.5,1087.808,1,28.416,231.213,434.01,202.827,405.624,608.434
bas,stp,1,107321,bas_stp_run1_107321,BLUE,c,mc,blue,3600,214176,79068,23,blue,blue,blue,blue,1,789.5,blueBLUE,135.108,214965.5,924.608,1,28.416,231.213,434.01,202.827,405.624,608.434
bas,stp,1,107321,bas_stp_run1_107321,GREEN,c,pc50,green,2400,220175,79068,24,green,green,green,green,1,905.5,greenGREEN,141.107,221080.5,1046.607,1,28.416,231.213,434.01,202.827,405.624,608.434
bas,stp,1,107321,bas_stp_run1_107321,RED,i,mc,white,3600,224975,79068,25,white,white,white,white,1,849,whiteRED,145.907,225824,994.907,1,28.416,231.213,434.01,202.827,405.624,608.434
bas,stp,1,107321,bas_stp_run1_107321,WHITE,i,mc,blue,1200,230975,79068,26,blue,blue,blue,blue,1,954.5,blueWHITE,151.907,231929.5,1106.407,1,28.416,231.213,434.01,202.827,405.624,608.434
bas,stp,1,107321,bas_stp_run1_107321,BLUE,c,mc,blue,2400,234575,79068,27,blue,blue,blue,blue,1,857.5,blueBLUE,155.507,235432.5,1013.007,1,28.416,231.213,434.01,202.827,405.624,608.434
bas,stp,1,107321,bas_stp_run1_107321,BLUE,c,mc,blue,1200,239375,79068,28,blue,blue,blue,blue,1,764.5,blueBLUE,160.307,240139.5,924.807,1,28.416,231.213,434.01,202.827,405.624,608.434
bas,stp,1,107321,bas_stp_run1_107321,YELLOW,c,pc50,yellow,2400,242975,79068,29,yellow,yellow,yellow,yellow,1,730.5,yellowYELLOW,163.907,243705.5,894.407,1,28.416,231.213,434.01,202.827,405.624,608.434
bas,stp,1,107321,bas_stp_run1_107321,PURPLE,c,mc,purple,3600,247775,79068,30,purple,purple,purple,purple,1,892.5,purplePURPLE,168.707,248667.5,1061.207,1,28.416,231.213,434.01,202.827,405.624,608.434
bas,stp,1,107321,bas_stp_run1_107321,BLACK,c,pc50,black,3600,253775,79068,31,black,black,black,black,1,777,blackBLACK,174.707,254552,951.707,1,28.416,231.213,434.01,202.827,405.624,608.434
bas,stp,1,107321,bas_stp_run1_107321,PURPLE,c,mc,purple,2400,259775,79068,32,purple,purple,purple,purple,1,783,purplePURPLE,180.707,260558,963.707,1,28.416,231.213,434.01,202.827,405.624,608.434
bas,stp,1,107321,bas_stp_run1_107321,YELLOW,i,pc50,black,1200,264575,79068,33,black,black,black,black,1,885,blackYELLOW,185.507,265460,1070.507,1,28.416,231.213,434.01,202.827,405.624,608.434
bas,stp,1,107321,bas_stp_run1_107321,BLUE,i,mc,red,3600,268175,79068,34,red,red,red,red,1,782,redBLUE,189.107,268957,971.107,1,28.416,231.213,434.01,202.827,405.624,608.434
bas,stp,1,107321,bas_stp_run1_107321,PURPLE,i,mc,white,1200,274175,79068,35,white,white,white,white,1,752.5,whitePURPLE,195.107,274927.5,947.607,1,28.416,231.213,434.01,202.827,405.624,608.434
bas,stp,1,107321,bas_stp_run1_107321,YELLOW,i,pc50,pink,2400,277775,79068,36,pink,pink,pink,pink,1,755.5,pinkYELLOW,198.707,278530.5,954.207,1,28.416,231.213,434.01,202.827,405.624,608.434
bas,stp,1,107321,bas_stp_run1_107321,PURPLE,c,mc,purple,1200,312574,79068,37,purple,purple,purple,purple,1,673.5,purplePURPLE,233.506,313247.5,907.006,1,28.416,231.213,434.01,202.827,405.624,608.434
bas,stp,1,107321,bas_stp_run1_107321,PURPLE,i,mc,white,3600,316174,79068,38,white,white,white,white,1,611,whitePURPLE,237.106,316785,848.106,1,28.416,231.213,434.01,202.827,405.624,608.434
bas,stp,1,107321,bas_stp_run1_107321,BLACK,i,pc50,green,2400,322174,79068,39,green,green,green,green,1,741.5,greenBLACK,243.106,322915.5,984.606,1,28.416,231.213,434.01,202.827,405.624,608.434
bas,stp,1,107321,bas_stp_run1_107321,WHITE,c,mc,white,3600,326974,79068,40,white,white,white,white,1,642,whiteWHITE,247.906,327616,889.906,1,28.416,231.213,434.01,202.827,405.624,608.434
bas,stp,1,107321,bas_stp_run1_107321,GREEN,c,pc50,green,1200,332974,79068,41,green,green,green,green,1,728,greenGREEN,253.906,333702,981.906,1,28.416,231.213,434.01,202.827,405.624,608.434
bas,stp,1,107321,bas_stp_run1_107321,GREEN,c,pc50,green,2400,336574,79068,42,green,green,green,green,1,700.5,greenGREEN,257.506,337274.5,958.006,1,28.416,231.213,434.01,202.827,405.624,608.434
bas,stp,1,107321,bas_stp_run1_107321,RED,i,mc,white,1200,341374,79068,43,white,white,white,white,1,711,whiteRED,262.306,342085,973.306,1,28.416,231.213,434.01,202.827,405.624,608.434
bas,stp,1,107321,bas_stp_run1_107321,PURPLE,c,mc,purple,1200,344974,79068,44,purple,purple,purple,purple,1,622,purplePURPLE,265.906,345596,887.906,1,28.416,231.213,434.01,202.827,405.624,608.434
bas,stp,1,107321,bas_stp_run1_107321,GREEN,i,pc50,yellow,2400,348574,79068,45,yellow,yellow,yellow,yellow,1,668.5,yellowGREEN,269.506,349242.5,938.006,1,28.416,231.213,434.01,202.827,405.624,608.434
bas,stp,1,107321,bas_stp_run1_107321,WHITE,c,mc,white,3600,353374,79068,46,white,white,white,white,1,884.5,whiteWHITE,274.306,354258.5,1158.806,1,28.416,231.213,434.01,202.827,405.624,608.434
bas,stp,1,107321,bas_stp_run1_107321,WHITE,c,mc,white,3600,359373,79068,47,white,white,white,white,1,628.5,whiteWHITE,280.305,360001.5,908.805,1,28.416,231.213,434.01,202.827,405.624,608.434
bas,stp,1,107321,bas_stp_run1_107321,GREEN,i,pc50,pink,2400,365373,79068,48,pink,pink,pink,pink,1,774,pinkGREEN,286.305,366147,1060.305,1,28.416,231.213,434.01,202.827,405.624,608.434
bas,stp,1,107321,bas_stp_run1_107321,BLUE,c,mc,blue,2400,370173,79068,49,blue,blue,blue,blue,1,668,blueBLUE,291.105,370841,959.105,1,28.416,231.213,434.01,202.827,405.624,608.434
bas,stp,1,107321,bas_stp_run1_107321,BLUE,i,mc,purple,1200,374973,79068,50,purple,purple,purple,purple,1,870,purpleBLUE,295.905,375843,1165.905,1,28.416,231.213,434.01,202.827,405.624,608.434
bas,stp,1,107321,bas_stp_run1_107321,RED,c,mc,red,3600,378573,79068,51,red,red,red,red,1,709,redRED,299.505,379282,1008.505,1,28.416,231.213,434.01,202.827,405.624,608.434
bas,stp,1,107321,bas_stp_run1_107321,BLUE,c,mc,blue,2400,384573,79068,52,blue,blue,blue,blue,1,597,blueBLUE,305.505,385170,902.505,1,28.416,231.213,434.01,202.827,405.624,608.434
bas,stp,1,107321,bas_stp_run1_107321,BLUE,c,mc,blue,3600,389373,79068,53,blue,blue,blue,blue,1,646.5,blueBLUE,310.305,390019.5,956.805,1,28.416,231.213,434.01,202.827,405.624,608.434
bas,stp,1,107321,bas_stp_run1_107321,WHITE,c,mc,white,3600,395373,79068,54,white,white,white,white,1,696.5,whiteWHITE,316.305,396069.5,1012.805,1,28.416,231.213,434.01,202.827,405.624,608.434
bas,stp,1,107321,bas_stp_run1_107321,YELLOW,i,pc50,pink,2400,401373,79068,55,pink,pink,pink,pink,1,692,pinkYELLOW,322.305,402065,1014.305,1,28.416,231.213,434.01,202.827,405.624,608.434
bas,stp,1,107321,bas_stp_run1_107321,BLUE,c,mc,blue,2400,406173,79068,56,blue,blue,blue,blue,1,712.5,blueBLUE,327.105,406885.5,1039.605,1,28.416,231.213,434.01,202.827,405.624,608.434
bas,stp,1,107321,bas_stp_run1_107321,PURPLE,c,mc,purple,3600,410973,79068,57,purple,purple,purple,purple,1,672.5,purplePURPLE,331.905,411645.5,1004.405,1,28.416,231.213,434.01,202.827,405.624,608.434
bas,stp,1,107321,bas_stp_run1_107321,PINK,i,pc50,black,1200,416973,79068,58,black,black,black,black,1,729,blackPINK,337.905,417702,1066.905,1,28.416,231.213,434.01,202.827,405.624,608.434
bas,stp,1,107321,bas_stp_run1_107321,PURPLE,c,mc,purple,1200,420573,79068,59,purple,purple,purple,purple,1,630,purplePURPLE,341.505,421203,971.505,1,28.416,231.213,434.01,202.827,405.624,608.434
bas,stp,1,107321,bas_stp_run1_107321,BLACK,c,pc50,black,1200,424172,79068,60,black,black,black,black,1,636,blackBLACK,345.104,424808,981.104,1,28.416,231.213,434.01,202.827,405.624,608.434
bas,stp,1,107321,bas_stp_run1_107321,RED,c,mc,red,1200,427772,79068,61,red,red,red,red,1,621,redRED,348.704,428393,969.704,1,28.416,231.213,434.01,202.827,405.624,608.434
bas,stp,1,107321,bas_stp_run1_107321,RED,c,mc,red,2400,431386,79068,62,red,red,red,red,1,,redRED,352.318,,,1,28.416,231.213,434.01,202.827,405.624,608.434
bas,stp,1,107321,bas_stp_run1_107321,YELLOW,c,pc50,yellow,1200,436186,79068,63,yellow,yellow,yellow,yellow,1,515.5,yellowYELLOW,357.118,436701.5,872.618,1,28.416,231.213,434.01,202.827,405.624,608.434
bas,stp,1,107321,bas_stp_run1_107321,PINK,c,pc50,pink,2400,439786,79068,64,pink,pink,pink,pink,1,544,pinkPINK,360.718,440330,904.718,1,28.416,231.213,434.01,202.827,405.624,608.434
bas,stp,1,107321,bas_stp_run1_107321,YELLOW,i,pc50,black,1200,444586,79068,65,yellow,yellow,black,yellow,0,491.5,blackYELLOW,365.518,445077.5,857.018,0,28.416,231.213,434.01,202.827,405.624,608.434
bas,stp,1,107321,bas_stp_run1_107321,YELLOW,c,pc50,yellow,3600,448185,79068,66,yellow,yellow,yellow,yellow,1,632.5,yellowYELLOW,369.117,448817.5,1001.617,1,28.416,231.213,434.01,202.827,405.624,608.434
bas,stp,1,107321,bas_stp_run1_107321,PURPLE,c,mc,purple,2400,454185,79068,67,purple,purple,purple,purple,1,635,purplePURPLE,375.117,454820,1010.117,1,28.416,231.213,434.01,202.827,405.624,608.434
bas,stp,1,107321,bas_stp_run1_107321,WHITE,i,mc,blue,2400,458985,79068,68,blue,blue,blue,blue,1,888,blueWHITE,379.917,459873,1267.917,1,28.416,231.213,434.01,202.827,405.624,608.434
bas,stp,1,107321,bas_stp_run1_107321,RED,c,mc,red,3600,463785,79068,69,red,red,red,red,1,620.5,redRED,384.717,464405.5,1005.217,1,28.416,231.213,434.01,202.827,405.624,608.434
bas,stp,1,107321,bas_stp_run1_107321,PURPLE,i,mc,red,1200,469785,79068,70,red,red,red,red,1,886.5,redPURPLE,390.717,470671.5,1277.217,1,28.416,231.213,434.01,202.827,405.624,608.434
bas,stp,1,107321,bas_stp_run1_107321,BLUE,i,mc,red,3600,473385,79068,71,red,red,red,red,1,916.5,redBLUE,394.317,474301.5,1310.817,1,28.416,231.213,434.01,202.827,405.624,608.434
bas,stp,1,107321,bas_stp_run1_107321,BLUE,c,mc,blue,3600,479385,79068,72,blue,blue,blue,blue,1,843,blueBLUE,400.317,480228,1243.317,1,28.416,231.213,434.01,202.827,405.624,608.434
bas,stp,1,107321,bas_stp_run1_107321,PURPLE,c,mc,purple,3600,515385,79068,73,purple,purple,purple,purple,1,781.5,purplePURPLE,436.317,516166.5,1217.817,1,28.416,231.213,434.01,202.827,405.624,608.434
bas,stp,1,107321,bas_stp_run1_107321,RED,c,mc,red,1200,521384,79068,74,red,red,red,red,1,668,redRED,442.316,522052,1110.316,1,28.416,231.213,434.01,202.827,405.624,608.434
bas,stp,1,107321,bas_stp_run1_107321,PURPLE,c,mc,purple,1200,524984,79068,75,purple,purple,purple,purple,1,499.5,purplePURPLE,445.916,525483.5,945.416,1,28.416,231.213,434.01,202.827,405.624,608.434
bas,stp,1,107321,bas_stp_run1_107321,BLUE,i,mc,purple,2400,528584,79068,76,blue,blue,purple,blue,0,555.5,purpleBLUE,449.516,529139.5,1005.016,0,28.416,231.213,434.01,202.827,405.624,608.434
bas,stp,1,107321,bas_stp_run1_107321,RED,c,mc,red,1200,533384,79068,77,red,red,red,red,1,,redRED,454.316,,,1,28.416,231.213,434.01,202.827,405.624,608.434
bas,stp,1,107321,bas_stp_run1_107321,WHITE,c,mc,white,3600,536984,79068,78,white,white,white,white,1,671,whiteWHITE,457.916,537655,1128.916,1,28.416,231.213,434.01,202.827,405.624,608.434
bas,stp,1,107321,bas_stp_run1_107321,YELLOW,i,pc50,black,1200,542984,79068,79,black,black,black,black,1,873,blackYELLOW,463.916,543857,1336.916,1,28.416,231.213,434.01,202.827,405.624,608.434
bas,stp,1,107321,bas_stp_run1_107321,BLUE,c,mc,blue,2400,546584,79068,80,blue,blue,blue,blue,1,598.5,blueBLUE,467.516,547182.5,1066.016,1,28.416,231.213,434.01,202.827,405.624,608.434
bas,stp,1,107321,bas_stp_run1_107321,RED,i,mc,white,2400,551384,79068,81,white,white,white,white,1,685.5,whiteRED,472.316,552069.5,1157.816,1,28.416,231.213,434.01,202.827,405.624,608.434
bas,stp,1,107321,bas_stp_run1_107321,PURPLE,c,mc,purple,2400,556184,79068,82,purple,purple,purple,purple,1,655.5,purplePURPLE,477.116,556839.5,1132.616,1,28.416,231.213,434.01,202.827,405.624,608.434
bas,stp,1,107321,bas_stp_run1_107321,BLUE,c,mc,blue,3600,560984,79068,83,blue,blue,blue,blue,1,616.5,blueBLUE,481.916,561600.5,1098.416,1,28.416,231.213,434.01,202.827,405.624,608.434
bas,stp,1,107321,bas_stp_run1_107321,WHITE,c,mc,white,3600,566984,79068,84,white,white,white,white,1,535.5,whiteWHITE,487.916,567519.5,1023.416,1,28.416,231.213,434.01,202.827,405.624,608.434
bas,stp,1,107321,bas_stp_run1_107321,RED,c,mc,red,2400,572984,79068,85,red,red,red,red,1,544,redRED,493.916,573528,1037.916,1,28.416,231.213,434.01,202.827,405.624,608.434
bas,stp,1,107321,bas_stp_run1_107321,BLUE,i,mc,red,3600,577784,79068,86,red,red,red,red,1,687.5,redBLUE,498.716,578471.5,1186.216,1,28.416,231.213,434.01,202.827,405.624,608.434
bas,stp,1,107321,bas_stp_run1_107321,WHITE,c,mc,white,3600,583784,79068,87,white,white,white,white,1,587,whiteWHITE,504.716,584371,1091.716,1,28.416,231.213,434.01,202.827,405.624,608.434
bas,stp,1,107321,bas_stp_run1_107321,PINK,c,pc50,pink,2400,589783,79068,88,pink,pink,pink,pink,1,715,pinkPINK,510.715,590498,1225.715,1,28.416,231.213,434.01,202.827,405.624,608.434
bas,stp,1,107321,bas_stp_run1_107321,BLUE,c,mc,blue,1200,594583,79068,89,blue,blue,blue,blue,1,672.5,blueBLUE,515.515,595255.5,1188.015,1,28.416,231.213,434.01,202.827,405.624,608.434
bas,stp,1,107321,bas_stp_run1_107321,PURPLE,c,mc,purple,3600,598183,79068,90,purple,purple,purple,purple,1,694.5,purplePURPLE,519.115,598877.5,1213.615,1,28.416,231.213,434.01,202.827,405.624,608.434
bas,stp,1,107321,bas_stp_run1_107321,PURPLE,i,mc,red,2400,604183,79068,91,red,red,red,red,1,577,redPURPLE,525.115,604760,1102.115,1,28.416,231.213,434.01,202.827,405.624,608.434
bas,stp,1,107321,bas_stp_run1_107321,PINK,i,pc50,black,3600,608983,79068,92,black,black,black,black,1,706,blackPINK,529.915,609689,1235.915,1,28.416,231.213,434.01,202.827,405.624,608.434
bas,stp,1,107321,bas_stp_run1_107321,WHITE,i,mc,blue,1200,614983,79068,93,blue,blue,blue,blue,1,788,blueWHITE,535.915,615771,1323.915,1,28.416,231.213,434.01,202.827,405.624,608.434
bas,stp,1,107321,bas_stp_run1_107321,PURPLE,c,mc,purple,1200,618583,79068,94,purple,purple,purple,purple,1,536.5,purplePURPLE,539.515,619119.5,1076.015,1,28.416,231.213,434.01,202.827,405.624,608.434
bas,stp,1,107321,bas_stp_run1_107321,BLACK,i,pc50,green,1200,622183,79068,95,green,green,green,green,1,711,greenBLACK,543.115,622894,1254.115,1,28.416,231.213,434.01,202.827,405.624,608.434
bas,stp,1,107321,bas_stp_run1_107321,GREEN,i,pc50,yellow,2400,625783,79068,96,yellow,yellow,yellow,yellow,1,660.5,yellowGREEN,546.715,626443.5,1207.215,1,28.416,231.213,434.01,202.827,405.624,608.434
bas,stp,1,107321,bas_stp_run1_107321,GREEN,i,pc50,pink,3600,630583,79068,97,pink,pink,pink,pink,1,,pinkGREEN,551.515,,,1,28.416,231.213,434.01,202.827,405.624,608.434
bas,stp,1,107321,bas_stp_run1_107321,YELLOW,i,pc50,pink,2400,636583,79068,98,pink,pink,pink,pink,1,786,pinkYELLOW,557.515,637369,1343.515,1,28.416,231.213,434.01,202.827,405.624,608.434
bas,stp,1,107321,bas_stp_run1_107321,BLUE,c,mc,blue,1200,641383,79068,99,blue,blue,blue,blue,1,,blueBLUE,562.315,,,1,28.416,231.213,434.01,202.827,405.624,608.434
bas,stp,1,107321,bas_stp_run1_107321,WHITE,c,mc,white,1200,644983,79068,100,white,white,white,white,1,815,whiteWHITE,565.915,645798,1380.915,1,28.416,231.213,434.01,202.827,405.624,608.434
bas,stp,1,107321,bas_stp_run1_107321,RED,c,mc,red,2400,648583,79068,101,red,red,red,red,1,692,redRED,569.515,649275,1261.515,1,28.416,231.213,434.01,202.827,405.624,608.434
bas,stp,1,107321,bas_stp_run1_107321,PURPLE,i,mc,white,3600,653383,79068,102,white,white,white,white,1,689,whitePURPLE,574.315,654072,1263.315,1,28.416,231.213,434.01,202.827,405.624,608.434
bas,stp,1,107321,bas_stp_run1_107321,BLACK,c,pc50,black,3600,659382,79068,103,black,black,black,black,1,621,blackBLACK,580.314,660003,1201.314,1,28.416,231.213,434.01,202.827,405.624,608.434
bas,stp,1,107321,bas_stp_run1_107321,BLUE,c,mc,blue,3600,665382,79068,104,blue,blue,blue,blue,1,804,blueBLUE,586.314,666186,1390.314,1,28.416,231.213,434.01,202.827,405.624,608.434
bas,stp,1,107321,bas_stp_run1_107321,YELLOW,c,pc50,yellow,2400,671382,79068,105,yellow,yellow,yellow,yellow,1,815,yellowYELLOW,592.314,672197,1407.314,1,28.416,231.213,434.01,202.827,405.624,608.434
bas,stp,1,107321,bas_stp_run1_107321,GREEN,c,pc50,green,1200,676182,79068,106,green,green,green,green,1,,greenGREEN,597.114,,,1,28.416,231.213,434.01,202.827,405.624,608.434
bas,stp,1,107321,bas_stp_run1_107321,YELLOW,c,pc50,yellow,1200,679782,79068,107,yellow,yellow,yellow,yellow,1,616.5,yellowYELLOW,600.714,680398.5,1217.214,1,28.416,231.213,434.01,202.827,405.624,608.434
bas,stp,1,107321,bas_stp_run1_107321,GREEN,c,pc50,green,2400,683382,79068,108,green,green,green,green,1,724,greenGREEN,604.314,684106,1328.314,1,28.416,231.213,434.01,202.827,405.624,608.434
bas,stp,2,107321,bas_stp_run2_107321,WHITE,i,mc,red,2400,75188,44480,1,red,red,red,red,1,611.5,redWHITE,30.708,75799.5,642.208,1,28.402,231.212,434.009,202.826,405.623,608.42
bas,stp,2,107321,bas_stp_run2_107321,GREEN,i,pc50,black,1200,79988,44480,2,black,black,black,black,1,808,blackGREEN,35.508,80796,843.508,1,28.402,231.212,434.009,202.826,405.623,608.42
bas,stp,2,107321,bas_stp_run2_107321,WHITE,c,mc,white,3600,83588,44480,3,white,white,white,white,1,660.5,whiteWHITE,39.108,84248.5,699.608,1,28.402,231.212,434.009,202.826,405.623,608.42
bas,stp,2,107321,bas_stp_run2_107321,RED,i,mc,blue,3600,89588,44480,4,blue,blue,blue,blue,1,746,blueRED,45.108,90334,791.108,1,28.402,231.212,434.009,202.826,405.623,608.42
bas,stp,2,107321,bas_stp_run2_107321,PINK,i,pc50,green,1200,95588,44480,5,green,green,green,green,1,704,greenPINK,51.108,96292,755.108,1,28.402,231.212,434.009,202.826,405.623,608.42
bas,stp,2,107321,bas_stp_run2_107321,PURPLE,c,mc,purple,3600,99188,44480,6,purple,purple,purple,purple,1,626,purplePURPLE,54.708,99814,680.708,1,28.402,231.212,434.009,202.826,405.623,608.42
bas,stp,2,107321,bas_stp_run2_107321,BLACK,i,pc50,yellow,3600,105188,44480,7,yellow,yellow,yellow,yellow,1,849,yellowBLACK,60.708,106037,909.708,1,28.402,231.212,434.009,202.826,405.623,608.42
bas,stp,2,107321,bas_stp_run2_107321,WHITE,c,mc,white,1200,111188,44480,8,white,white,white,white,1,604,whiteWHITE,66.708,111792,670.708,1,28.402,231.212,434.009,202.826,405.623,608.42
bas,stp,2,107321,bas_stp_run2_107321,BLUE,i,mc,white,2400,114788,44480,9,white,white,white,white,1,644.5,whiteBLUE,70.308,115432.5,714.808,1,28.402,231.212,434.009,202.826,405.623,608.42
bas,stp,2,107321,bas_stp_run2_107321,RED,c,mc,red,1200,119588,44480,10,red,red,red,red,1,660,redRED,75.108,120248,735.108,1,28.402,231.212,434.009,202.826,405.623,608.42
bas,stp,2,107321,bas_stp_run2_107321,PURPLE,c,mc,purple,2400,123188,44480,11,purple,purple,purple,purple,1,582,purplePURPLE,78.708,123770,660.708,1,28.402,231.212,434.009,202.826,405.623,608.42
bas,stp,2,107321,bas_stp_run2_107321,RED,c,mc,red,2400,127988,44480,12,red,red,red,red,1,480.5,redRED,83.508,128468.5,564.008,1,28.402,231.212,434.009,202.826,405.623,608.42
bas,stp,2,107321,bas_stp_run2_107321,BLUE,c,mc,blue,1200,132788,44480,13,blue,blue,blue,blue,1,669.5,blueBLUE,88.308,133457.5,757.808,1,28.402,231.212,434.009,202.826,405.623,608.42
bas,stp,2,107321,bas_stp_run2_107321,WHITE,c,mc,white,1200,136387,44480,14,white,white,white,white,1,687,whiteWHITE,91.907,137074,778.907,1,28.402,231.212,434.009,202.826,405.623,608.42
bas,stp,2,107321,bas_stp_run2_107321,BLUE,c,mc,blue,3600,139987,44480,15,blue,blue,blue,blue,1,640,blueBLUE,95.507,140627,735.507,1,28.402,231.212,434.009,202.826,405.623,608.42
bas,stp,2,107321,bas_stp_run2_107321,RED,c,mc,red,2400,145987,44480,16,red,red,red,red,1,653.5,redRED,101.507,146640.5,755.007,1,28.402,231.212,434.009,202.826,405.623,608.42
bas,stp,2,107321,bas_stp_run2_107321,PINK,c,pc50,pink,3600,150787,44480,17,pink,pink,pink,pink,1,,pinkPINK,106.307,,,1,28.402,231.212,434.009,202.826,405.623,608.42
bas,stp,2,107321,bas_stp_run2_107321,YELLOW,i,pc50,green,2400,156787,44480,18,green,green,green,green,1,703,greenYELLOW,112.307,157490,815.307,1,28.402,231.212,434.009,202.826,405.623,608.42
bas,stp,2,107321,bas_stp_run2_107321,BLACK,i,pc50,pink,3600,161587,44480,19,pink,pink,pink,pink,1,682,pinkBLACK,117.107,162269,799.107,1,28.402,231.212,434.009,202.826,405.623,608.42
bas,stp,2,107321,bas_stp_run2_107321,RED,i,mc,purple,1200,167587,44480,20,purple,purple,purple,purple,1,735,purpleRED,123.107,168322,858.107,1,28.402,231.212,434.009,202.826,405.623,608.42
bas,stp,2,107321,bas_stp_run2_107321,YELLOW,c,pc50,yellow,1200,171187,44480,21,yellow,yellow,yellow,yellow,1,642.5,yellowYELLOW,126.707,171829.5,769.207,1,28.402,231.212,434.009,202.826,405.623,608.42
bas,stp,2,107321,bas_stp_run2_107321,PINK,c,pc50,pink,2400,174787,44480,22,pink,pink,pink,pink,1,628,pinkPINK,130.307,175415,758.307,1,28.402,231.212,434.009,202.826,405.623,608.42
bas,stp,2,107321,bas_stp_run2_107321,PURPLE,c,mc,purple,3600,179587,44480,23,purple,purple,purple,purple,1,633,purplePURPLE,135.107,180220,768.107,1,28.402,231.212,434.009,202.826,405.623,608.42
bas,stp,2,107321,bas_stp_run2_107321,RED,c,mc,red,2400,185587,44480,24,red,red,red,red,1,810,redRED,141.107,186397,951.107,1,28.402,231.212,434.009,202.826,405.623,608.42
bas,stp,2,107321,bas_stp_run2_107321,GREEN,c,pc50,green,3600,190387,44480,25,green,green,green,green,1,676,greenGREEN,145.907,191063,821.907,1,28.402,231.212,434.009,202.826,405.623,608.42
bas,stp,2,107321,bas_stp_run2_107321,PURPLE,c,mc,purple,3600,196387,44480,26,purple,purple,purple,purple,1,692,purplePURPLE,151.907,197079,843.907,1,28.402,231.212,434.009,202.826,405.623,608.42
bas,stp,2,107321,bas_stp_run2_107321,WHITE,c,mc,white,3600,202386,44480,27,white,white,white,white,1,597.5,whiteWHITE,157.906,202983.5,755.406,1,28.402,231.212,434.009,202.826,405.623,608.42
bas,stp,2,107321,bas_stp_run2_107321,PINK,i,pc50,yellow,2400,208386,44480,28,yellow,yellow,yellow,yellow,1,758.5,yellowPINK,163.906,209144.5,922.406,1,28.402,231.212,434.009,202.826,405.623,608.42
bas,stp,2,107321,bas_stp_run2_107321,BLUE,c,mc,blue,2400,213186,44480,29,blue,blue,blue,blue,1,656,blueBLUE,168.706,213842,824.706,1,28.402,231.212,434.009,202.826,405.623,608.42
bas,stp,2,107321,bas_stp_run2_107321,WHITE,c,mc,white,1200,217986,44480,30,white,white,white,white,1,529.5,whiteWHITE,173.506,218515.5,703.006,1,28.402,231.212,434.009,202.826,405.623,608.42
bas,stp,2,107321,bas_stp_run2_107321,PURPLE,i,mc,blue,1200,221586,44480,31,blue,blue,blue,blue,1,863,bluePURPLE,177.106,222449,1040.106,1,28.402,231.212,434.009,202.826,405.623,608.42
bas,stp,2,107321,bas_stp_run2_107321,BLACK,c,pc50,black,2400,225186,44480,32,black,black,black,black,1,688,blackBLACK,180.706,225874,868.706,1,28.402,231.212,434.009,202.826,405.623,608.42
bas,stp,2,107321,bas_stp_run2_107321,RED,c,mc,red,1200,229986,44480,33,red,red,red,red,1,525.5,redRED,185.506,230511.5,711.006,1,28.402,231.212,434.009,202.826,405.623,608.42
bas,stp,2,107321,bas_stp_run2_107321,BLACK,c,pc50,black,1200,233586,44480,34,black,black,black,black,1,581,blackBLACK,189.106,234167,770.106,1,28.402,231.212,434.009,202.826,405.623,608.42
bas,stp,2,107321,bas_stp_run2_107321,WHITE,i,mc,purple,2400,237186,44480,35,purple,white (said whi-purple),purple,white,0,1455,purpleWHITE,192.706,238641,1647.706,0,28.402,231.212,434.009,202.826,405.623,608.42
bas,stp,2,107321,bas_stp_run2_107321,BLUE,c,mc,blue,3600,241986,44480,36,blue,blue,blue,blue,1,682.5,blueBLUE,197.506,242668.5,880.006,1,28.402,231.212,434.009,202.826,405.623,608.42
bas,stp,2,107321,bas_stp_run2_107321,BLUE,i,mc,white,1200,277985,44480,37,white,white,white,white,1,837,whiteBLUE,233.505,278822,1070.505,1,28.402,231.212,434.009,202.826,405.623,608.42
bas,stp,2,107321,bas_stp_run2_107321,RED,c,mc,red,1200,281585,44480,38,red,red,red,red,1,570.5,redRED,237.105,282155.5,807.605,1,28.402,231.212,434.009,202.826,405.623,608.42
bas,stp,2,107321,bas_stp_run2_107321,PURPLE,i,mc,blue,2400,285185,44480,39,blue,blue,blue,blue,1,909,bluePURPLE,240.705,286094,1149.705,1,28.402,231.212,434.009,202.826,405.623,608.42
bas,stp,2,107321,bas_stp_run2_107321,RED,i,mc,purple,1200,289985,44480,40,purple,purple,purple,purple,1,863.5,purpleRED,245.505,290848.5,1109.005,1,28.402,231.212,434.009,202.826,405.623,608.42
bas,stp,2,107321,bas_stp_run2_107321,GREEN,c,pc50,green,1200,293585,44480,41,green,green,green,green,1,776,greenGREEN,249.105,294361,1025.105,1,28.402,231.212,434.009,202.826,405.623,608.42
bas,stp,2,107321,bas_stp_run2_107321,WHITE,c,mc,white,2400,297185,44480,42,white,white,white,white,1,703.5,whiteWHITE,252.705,297888.5,956.205,1,28.402,231.212,434.009,202.826,405.623,608.42
bas,stp,2,107321,bas_stp_run2_107321,PURPLE,c,mc,purple,2400,301985,44480,43,purple,purple,purple,purple,1,695.5,purplePURPLE,257.505,302680.5,953.005,1,28.402,231.212,434.009,202.826,405.623,608.42
bas,stp,2,107321,bas_stp_run2_107321,RED,c,mc,red,3600,306785,44480,44,red,red,red,red,1,714,redRED,262.305,307499,976.305,1,28.402,231.212,434.009,202.826,405.623,608.42
bas,stp,2,107321,bas_stp_run2_107321,BLUE,c,mc,blue,3600,312785,44480,45,blue,blue,blue,blue,1,845,blueBLUE,268.305,313630,1113.305,1,28.402,231.212,434.009,202.826,405.623,608.42
bas,stp,2,107321,bas_stp_run2_107321,RED,c,mc,red,3600,318785,44480,46,red,red,red,red,1,922,redRED,274.305,319707,1196.305,1,28.402,231.212,434.009,202.826,405.623,608.42
bas,stp,2,107321,bas_stp_run2_107321,BLACK,c,pc50,black,3600,324785,44480,47,black,black,black,black,1,761,blackBLACK,280.305,325546,1041.305,1,28.402,231.212,434.009,202.826,405.623,608.42
bas,stp,2,107321,bas_stp_run2_107321,PINK,c,pc50,pink,2400,330785,44480,48,pink,pink,pink,pink,1,625,pinkPINK,286.305,331410,911.305,1,28.402,231.212,434.009,202.826,405.623,608.42
bas,stp,2,107321,bas_stp_run2_107321,YELLOW,c,pc50,yellow,1200,335585,44480,49,yellow,yellow,yellow,yellow,1,746,yellowYELLOW,291.105,336331,1037.105,1,28.402,231.212,434.009,202.826,405.623,608.42
bas,stp,2,107321,bas_stp_run2_107321,WHITE,c,mc,white,2400,339185,44480,50,white,white,white,white,1,588,whiteWHITE,294.705,339773,882.705,1,28.402,231.212,434.009,202.826,405.623,608.42
bas,stp,2,107321,bas_stp_run2_107321,WHITE,c,mc,white,2400,343984,44480,51,white,white,white,white,1,661.5,whiteWHITE,299.504,344645.5,961.004,1,28.402,231.212,434.009,202.826,405.623,608.42
bas,stp,2,107321,bas_stp_run2_107321,BLACK,i,pc50,yellow,2400,348784,44480,52,yellow,yellow,yellow,yellow,1,677,yellowBLACK,304.304,349461,981.304,1,28.402,231.212,434.009,202.826,405.623,608.42
bas,stp,2,107321,bas_stp_run2_107321,WHITE,c,mc,white,2400,353584,44480,53,white,white,white,white,1,665,whiteWHITE,309.104,354249,974.104,1,28.402,231.212,434.009,202.826,405.623,608.42
bas,stp,2,107321,bas_stp_run2_107321,PURPLE,c,mc,purple,3600,358384,44480,54,purple,purple,purple,purple,1,712.5,purplePURPLE,313.904,359096.5,1026.404,1,28.402,231.212,434.009,202.826,405.623,608.42
bas,stp,2,107321,bas_stp_run2_107321,PURPLE,c,mc,purple,1200,364384,44480,55,purple,purple,purple,purple,1,883,purplePURPLE,319.904,365267,1202.904,1,28.402,231.212,434.009,202.826,405.623,608.42
bas,stp,2,107321,bas_stp_run2_107321,RED,i,mc,blue,1200,367984,44480,56,blue,blue,blue,blue,1,892,blueRED,323.504,368876,1215.504,1,28.402,231.212,434.009,202.826,405.623,608.42
bas,stp,2,107321,bas_stp_run2_107321,PINK,i,pc50,green,3600,371584,44480,57,green,green,green,green,1,631.5,greenPINK,327.104,372215.5,958.604,1,28.402,231.212,434.009,202.826,405.623,608.42
bas,stp,2,107321,bas_stp_run2_107321,WHITE,i,mc,red,3600,377584,44480,58,red,red,red,red,1,757,redWHITE,333.104,378341,1090.104,1,28.402,231.212,434.009,202.826,405.623,608.42
bas,stp,2,107321,bas_stp_run2_107321,RED,c,mc,red,1200,383584,44480,59,red,red,red,red,1,544.5,redRED,339.104,384128.5,883.604,1,28.402,231.212,434.009,202.826,405.623,608.42
bas,stp,2,107321,bas_stp_run2_107321,BLACK,i,pc50,pink,3600,387184,44480,60,pink,pink,pink,pink,1,470,pinkBLACK,342.704,387654,812.704,1,28.402,231.212,434.009,202.826,405.623,608.42
bas,stp,2,107321,bas_stp_run2_107321,YELLOW,i,pc50,green,2400,393184,44480,61,green,green,green,green,1,643,greenYELLOW,348.704,393827,991.704,1,28.402,231.212,434.009,202.826,405.623,608.42
bas,stp,2,107321,bas_stp_run2_107321,WHITE,c,mc,white,3600,397984,44480,62,white,white,white,white,1,543.5,whiteWHITE,353.504,398527.5,897.004,1,28.402,231.212,434.009,202.826,405.623,608.42
bas,stp,2,107321,bas_stp_run2_107321,GREEN,i,pc50,black,1200,403984,44480,63,black,black,black,black,1,766,blackGREEN,359.504,404750,1125.504,1,28.402,231.212,434.009,202.826,405.623,608.42
bas,stp,2,107321,bas_stp_run2_107321,BLACK,c,pc50,black,1200,407584,44480,64,black,black,black,black,1,542.5,blackBLACK,363.104,408126.5,905.604,1,28.402,231.212,434.009,202.826,405.623,608.42
bas,stp,2,107321,bas_stp_run2_107321,PURPLE,c,mc,purple,1200,411183,44480,65,purple,purple,purple,purple,1,622.5,purplePURPLE,366.703,411805.5,989.203,1,28.402,231.212,434.009,202.826,405.623,608.42
bas,stp,2,107321,bas_stp_run2_107321,RED,c,mc,red,3600,414783,44480,66,red,red,red,red,1,573,redRED,370.303,415356,943.303,1,28.402,231.212,434.009,202.826,405.623,608.42
bas,stp,2,107321,bas_stp_run2_107321,PINK,c,pc50,pink,2400,420783,44480,67,pink,pink,pink,pink,1,1697,pinkPINK,376.303,422480,2073.303,1,28.402,231.212,434.009,202.826,405.623,608.42
bas,stp,2,107321,bas_stp_run2_107321,BLUE,c,mc,blue,3600,425583,44480,68,blue,blue,blue,blue,1,796.5,blueBLUE,381.103,426379.5,1177.603,1,28.402,231.212,434.009,202.826,405.623,608.42
bas,stp,2,107321,bas_stp_run2_107321,WHITE,i,mc,purple,3600,431583,44480,69,purple,purple,purple,purple,1,884,purpleWHITE,387.103,432467,1271.103,1,28.402,231.212,434.009,202.826,405.623,608.42
bas,stp,2,107321,bas_stp_run2_107321,PINK,i,pc50,yellow,2400,437583,44480,70,yellow,yellow,yellow,yellow,1,725.5,yellowPINK,393.103,438308.5,1118.603,1,28.402,231.212,434.009,202.826,405.623,608.42
bas,stp,2,107321,bas_stp_run2_107321,BLUE,c,mc,blue,2400,442383,44480,71,blue,blue,blue,blue,1,693.5,blueBLUE,397.903,443076.5,1091.403,1,28.402,231.212,434.009,202.826,405.623,608.42
bas,stp,2,107321,bas_stp_run2_107321,BLUE,c,mc,blue,1200,447183,44480,72,blue,blue,blue,blue,1,708.5,blueBLUE,402.703,447891.5,1111.203,1,28.402,231.212,434.009,202.826,405.623,608.42
bas,stp,2,107321,bas_stp_run2_107321,BLUE,i,mc,white,3600,480782,44480,73,white,white,white,white,1,720,whiteBLUE,436.302,481502,1156.302,1,28.402,231.212,434.009,202.826,405.623,608.42
bas,stp,2,107321,bas_stp_run2_107321,WHITE,c,mc,white,3600,486782,44480,74,white,white,white,white,1,779.5,whiteWHITE,442.302,487561.5,1221.802,1,28.402,231.212,434.009,202.826,405.623,608.42
bas,stp,2,107321,bas_stp_run2_107321,PURPLE,i,mc,blue,2400,492782,44480,75,blue,blue,blue,blue,1,704,bluePURPLE,448.302,493486,1152.302,1,28.402,231.212,434.009,202.826,405.623,608.42
bas,stp,2,107321,bas_stp_run2_107321,RED,c,mc,red,2400,497582,44480,76,red,red,red,red,1,614.5,redRED,453.102,498196.5,1067.602,1,28.402,231.212,434.009,202.826,405.623,608.42
bas,stp,2,107321,bas_stp_run2_107321,WHITE,i,mc,purple,3600,502382,44480,77,purple,purple,purple,purple,1,672.5,purpleWHITE,457.902,503054.5,1130.402,1,28.402,231.212,434.009,202.826,405.623,608.42
bas,stp,2,107321,bas_stp_run2_107321,WHITE,c,mc,white,1200,508382,44480,78,white,white,white,white,1,835,whiteWHITE,463.902,509217,1298.902,1,28.402,231.212,434.009,202.826,405.623,608.42
bas,stp,2,107321,bas_stp_run2_107321,YELLOW,c,pc50,yellow,1200,511982,44480,79,yellow,yellow,yellow,yellow,1,833,yellowYELLOW,467.502,512815,1300.502,1,28.402,231.212,434.009,202.826,405.623,608.42
bas,stp,2,107321,bas_stp_run2_107321,PINK,i,pc50,green,2400,515582,44480,80,green,green,green,green,1,863.5,greenPINK,471.102,516445.5,1334.602,1,28.402,231.212,434.009,202.826,405.623,608.42
bas,stp,2,107321,bas_stp_run2_107321,RED,c,mc,red,1200,520382,44480,81,red,red,red,red,1,694,redRED,475.902,521076,1169.902,1,28.402,231.212,434.009,202.826,405.623,608.42
bas,stp,2,107321,bas_stp_run2_107321,PURPLE,c,mc,purple,3600,523982,44480,82,purple,purple,purple,purple,1,702,purplePURPLE,479.502,524684,1181.502,1,28.402,231.212,434.009,202.826,405.623,608.42
bas,stp,2,107321,bas_stp_run2_107321,RED,c,mc,red,1200,529982,44480,83,red,red,red,red,1,499,redRED,485.502,530481,984.502,1,28.402,231.212,434.009,202.826,405.623,608.42
bas,stp,2,107321,bas_stp_run2_107321,WHITE,c,mc,white,2400,533582,44480,84,white,white,white,white,1,607,whiteWHITE,489.102,534189,1096.102,1,28.402,231.212,434.009,202.826,405.623,608.42
bas,stp,2,107321,bas_stp_run2_107321,BLUE,c,mc,blue,2400,538382,44480,85,blue,blue,blue,blue,1,441.5,blueBLUE,493.902,538823.5,935.402,1,28.402,231.212,434.009,202.826,405.623,608.42
bas,stp,2,107321,bas_stp_run2_107321,BLUE,c,mc,blue,2400,543182,44480,86,blue,blue,blue,blue,1,554.5,blueBLUE,498.702,543736.5,1053.202,1,28.402,231.212,434.009,202.826,405.623,608.42
bas,stp,2,107321,bas_stp_run2_107321,YELLOW,i,pc50,green,3600,547982,44480,87,green,green,green,green,1,722.5,greenYELLOW,503.502,548704.5,1226.002,1,28.402,231.212,434.009,202.826,405.623,608.42
bas,stp,2,107321,bas_stp_run2_107321,PINK,c,pc50,pink,1200,553981,44480,88,pink,pink,pink,pink,1,478,pinkPINK,509.501,554459,987.501,1,28.402,231.212,434.009,202.826,405.623,608.42
bas,stp,2,107321,bas_stp_run2_107321,RED,c,mc,red,1200,557581,44480,89,red,red,red,red,1,657.5,redRED,513.101,558238.5,1170.601,1,28.402,231.212,434.009,202.826,405.623,608.42
bas,stp,2,107321,bas_stp_run2_107321,PINK,i,pc50,yellow,1200,561181,44480,90,yellow,yellow,yellow,yellow,1,682,yellowPINK,516.701,561863,1198.701,1,28.402,231.212,434.009,202.826,405.623,608.42
bas,stp,2,107321,bas_stp_run2_107321,BLACK,c,pc50,black,2400,564781,44480,91,black,black,black,black,1,579.5,blackBLACK,520.301,565360.5,1099.801,1,28.402,231.212,434.009,202.826,405.623,608.42
bas,stp,2,107321,bas_stp_run2_107321,BLACK,c,pc50,black,1200,569581,44480,92,black,black,black,black,1,479.5,blackBLACK,525.101,570060.5,1004.601,1,28.402,231.212,434.009,202.826,405.623,608.42
bas,stp,2,107321,bas_stp_run2_107321,PURPLE,c,mc,purple,3600,573181,44480,93,purple,purple,purple,purple,1,582,purplePURPLE,528.701,573763,1110.701,1,28.402,231.212,434.009,202.826,405.623,608.42
bas,stp,2,107321,bas_stp_run2_107321,BLUE,c,mc,blue,2400,579181,44480,94,blue,blue,blue,blue,1,921,blueBLUE,534.701,580102,1455.701,1,28.402,231.212,434.009,202.826,405.623,608.42
bas,stp,2,107321,bas_stp_run2_107321,PINK,c,pc50,pink,3600,583981,44480,95,pink,pink,pink,pink,1,668,pinkPINK,539.501,584649,1207.501,1,28.402,231.212,434.009,202.826,405.623,608.42
bas,stp,2,107321,bas_stp_run2_107321,PURPLE,c,mc,purple,3600,589981,44480,96,purple,purple,purple,purple,1,708.5,purplePURPLE,545.501,590689.5,1254.001,1,28.402,231.212,434.009,202.826,405.623,608.42
bas,stp,2,107321,bas_stp_run2_107321,BLACK,i,pc50,yellow,1200,595981,44480,97,yellow,yellow,yellow,yellow,1,836.5,yellowBLACK,551.501,596817.5,1388.001,1,28.402,231.212,434.009,202.826,405.623,608.42
bas,stp,2,107321,bas_stp_run2_107321,RED,i,mc,purple,1200,599581,44480,98,purple,purple,purple,purple,1,833.5,purpleRED,555.101,600414.5,1388.601,1,28.402,231.212,434.009,202.826,405.623,608.42
bas,stp,2,107321,bas_stp_run2_107321,BLACK,i,pc50,pink,1200,603181,44480,99,pink,pink,pink,pink,1,801,pinkBLACK,558.701,603982,1359.701,1,28.402,231.212,434.009,202.826,405.623,608.42
bas,stp,2,107321,bas_stp_run2_107321,GREEN,c,pc50,green,2400,606781,44480,100,green,green,green,green,1,828.5,greenGREEN,562.301,607609.5,1390.801,1,28.402,231.212,434.009,202.826,405.623,608.42
bas,stp,2,107321,bas_stp_run2_107321,WHITE,i,mc,red,3600,611581,44480,101,red,red,red,red,1,,redWHITE,567.101,,,1,28.402,231.212,434.009,202.826,405.623,608.42
bas,stp,2,107321,bas_stp_run2_107321,RED,i,mc,blue,3600,617581,44480,102,blue,blue,blue,blue,1,804,blueRED,573.101,618385,1377.101,1,28.402,231.212,434.009,202.826,405.623,608.42
bas,stp,2,107321,bas_stp_run2_107321,PURPLE,c,mc,purple,3600,623594,44480,103,purple,purple,purple,purple,1,1097,purplePURPLE,579.114,624691,1676.114,1,28.402,231.212,434.009,202.826,405.623,608.42
bas,stp,2,107321,bas_stp_run2_107321,GREEN,i,pc50,black,2400,629594,44480,104,black,black,black,black,1,984,blackGREEN,585.114,630578,1569.114,1,28.402,231.212,434.009,202.826,405.623,608.42
bas,stp,2,107321,bas_stp_run2_107321,WHITE,c,mc,white,2400,634394,44480,105,white,white,white,white,1,700.5,whiteWHITE,589.914,635094.5,1290.414,1,28.402,231.212,434.009,202.826,405.623,608.42
bas,stp,2,107321,bas_stp_run2_107321,WHITE,c,mc,white,2400,639194,44480,106,white,white,white,white,1,,whiteWHITE,594.714,,,1,28.402,231.212,434.009,202.826,405.623,608.42
bas,stp,2,107321,bas_stp_run2_107321,BLUE,c,mc,blue,1200,643993,44480,107,blue,blue,blue,blue,1,694,blueBLUE,599.513,644687,1293.513,1,28.402,231.212,434.009,202.826,405.623,608.42
bas,stp,2,107321,bas_stp_run2_107321,RED,c,mc,red,3600,647593,44480,108,red,red,red,red,1,642,redRED,603.113,648235,1245.113,1,28.402,231.212,434.009,202.826,405.623,608.42
bas,stp,1,115825,bas_stp_run1_115825,BLACK,c,pc50,black,1200,90544,59822,1,red,black,black,black,1,1217.5,blackBLACK,30.722,91761.5,1248.222,1,28.422,231.224,434.025,202.828,405.629,608.464
bas,stp,1,115825,bas_stp_run1_115825,BLUE,c,mc,blue,3600,94143,59822,2,blue,blue,blue,blue,1,929,blueBLUE,34.321,95072,963.321,1,28.422,231.224,434.025,202.828,405.629,608.464
bas,stp,1,115825,bas_stp_run1_115825,RED,c,mc,red,2400,100143,59822,3,red,red,red,red,1,908.5,redRED,40.321,101051.5,948.821,1,28.422,231.224,434.025,202.828,405.629,608.464
bas,stp,1,115825,bas_stp_run1_115825,PURPLE,i,mc,white,2400,104942,59822,4,purple,purple,white,purple,0,963,whitePURPLE,45.12,105905,1008.12,0,28.422,231.224,434.025,202.828,405.629,608.464
bas,stp,1,115825,bas_stp_run1_115825,PURPLE,i,mc,red,3600,109741,59822,5,red,red,red,red,1,1165,redPURPLE,49.919,110906,1214.919,1,28.422,231.224,434.025,202.828,405.629,608.464
bas,stp,1,115825,bas_stp_run1_115825,PURPLE,c,mc,purple,3600,115740,59822,6,purple,purple,purple,purple,1,1021.5,purplePURPLE,55.918,116761.5,1077.418,1,28.422,231.224,434.025,202.828,405.629,608.464
bas,stp,1,115825,bas_stp_run1_115825,YELLOW,i,pc50,pink,2400,121739,59822,7,pink,pink,pink,pink,1,1239,pinkYELLOW,61.917,122978,1300.917,1,28.422,231.224,434.025,202.828,405.629,608.464
bas,stp,1,115825,bas_stp_run1_115825,WHITE,i,mc,blue,2400,126538,59822,8,blue,blue,blue,blue,1,1345.5,blueWHITE,66.716,127883.5,1412.216,1,28.422,231.224,434.025,202.828,405.629,608.464
bas,stp,1,115825,bas_stp_run1_115825,BLUE,c,mc,blue,3600,131338,59822,9,blue,blue - muffled,blue,blue,1,890,blueBLUE,71.516,132228,961.516,1,28.422,231.224,434.025,202.828,405.629,608.464
bas,stp,1,115825,bas_stp_run1_115825,RED,c,mc,red,1200,137337,59822,10,red,red,red,red,1,956.5,redRED,77.515,138293.5,1034.015,1,28.422,231.224,434.025,202.828,405.629,608.464
bas,stp,1,115825,bas_stp_run1_115825,WHITE,c,mc,white,1200,140936,59822,11,white,white,white,white,1,1053,whiteWHITE,81.114,141989,1134.114,1,28.422,231.224,434.025,202.828,405.629,608.464
bas,stp,1,115825,bas_stp_run1_115825,PURPLE,c,mc,purple,1200,144536,59822,12,purple,purple,purple,purple,1,1111.5,purplePURPLE,84.714,145647.5,1196.214,1,28.422,231.224,434.025,202.828,405.629,608.464
bas,stp,1,115825,bas_stp_run1_115825,RED,c,mc,red,3600,148135,59822,13,red,red,red,red,1,980,redRED,88.313,149115,1068.313,1,28.422,231.224,434.025,202.828,405.629,608.464
bas,stp,1,115825,bas_stp_run1_115825,GREEN,c,pc50,green,1200,154134,59822,14,green,green,green,green,1,1170.5,greenGREEN,94.312,155304.5,1264.812,1,28.422,231.224,434.025,202.828,405.629,608.464
bas,stp,1,115825,bas_stp_run1_115825,YELLOW,i,pc50,black,2400,157733,59822,15,yellow - yellow followed by unintelligible correction,"yellow, utterance, black",black,yellow,0,1024,blackYELLOW,97.911,158757,1121.911,0,28.422,231.224,434.025,202.828,405.629,608.464
bas,stp,1,115825,bas_stp_run1_115825,BLUE,c,mc,blue,1200,162533,59822,16,blue,blue,blue,blue,1,961,blueBLUE,102.711,163494,1063.711,1,28.422,231.224,434.025,202.828,405.629,608.464
bas,stp,1,115825,bas_stp_run1_115825,BLUE,c,mc,blue,1200,166132,59822,17,blue,blue,blue,blue,1,752.5,blueBLUE,106.31,166884.5,858.81,1,28.422,231.224,434.025,202.828,405.629,608.464
bas,stp,1,115825,bas_stp_run1_115825,BLUE,i,mc,purple,3600,169732,59822,18,purple,purple,purple,purple,1,1176.5,purpleBLUE,109.91,170908.5,1286.41,1,28.422,231.224,434.025,202.828,405.629,608.464
bas,stp,1,115825,bas_stp_run1_115825,PURPLE,c,mc,purple,2400,175731,59822,19,purple,purple,purple,purple,1,996.5,purplePURPLE,115.909,176727.5,1112.409,1,28.422,231.224,434.025,202.828,405.629,608.464
bas,stp,1,115825,bas_stp_run1_115825,RED,i,mc,white,2400,180546,59822,20,white,white,white,white,1,1008,whiteRED,120.724,181554,1128.724,1,28.422,231.224,434.025,202.828,405.629,608.464
bas,stp,1,115825,bas_stp_run1_115825,PINK,i,pc50,black,1200,185346,59822,21,black,black,black,black,1,1320.5,blackPINK,125.524,186666.5,1446.024,1,28.422,231.224,434.025,202.828,405.629,608.464
bas,stp,1,115825,bas_stp_run1_115825,WHITE,c,mc,white,3600,188945,59822,22,white,white,white,white,1,1002,whiteWHITE,129.123,189947,1131.123,1,28.422,231.224,434.025,202.828,405.629,608.464
bas,stp,1,115825,bas_stp_run1_115825,WHITE,c,mc,white,2400,194944,59822,23,white,white,white,white,1,946.5,whiteWHITE,135.122,195890.5,1081.622,1,28.422,231.224,434.025,202.828,405.629,608.464
bas,stp,1,115825,bas_stp_run1_115825,PURPLE,c,mc,purple,3600,199743,59822,24,purple,purple,purple,purple,1,931,purplePURPLE,139.921,200674,1070.921,1,28.422,231.224,434.025,202.828,405.629,608.464
bas,stp,1,115825,bas_stp_run1_115825,RED,c,mc,red,3600,205742,59822,25,red,red,red,red,1,872,redRED,145.92,206614,1017.92,1,28.422,231.224,434.025,202.828,405.629,608.464
bas,stp,1,115825,bas_stp_run1_115825,YELLOW,c,pc50,yellow,1200,211742,59822,26,yellow,yellow,yellow,yellow,1,997.5,yellowYELLOW,151.92,212739.5,1149.42,1,28.422,231.224,434.025,202.828,405.629,608.464
bas,stp,1,115825,bas_stp_run1_115825,PURPLE,c,mc,purple,2400,215341,59822,27,purple,purple,purple,purple,1,771,purplePURPLE,155.519,216112,926.519,1,28.422,231.224,434.025,202.828,405.629,608.464
bas,stp,1,115825,bas_stp_run1_115825,BLUE,i,mc,red,2400,220140,59822,28,blue- clears throat before and after uttering,utterance blue utterance,red,"",unintelligible,1498.5,redBLUE,160.318,221638.5,1658.818,,28.422,231.224,434.025,202.828,405.629,608.464
bas,stp,1,115825,bas_stp_run1_115825,GREEN,i,pc50,pink,2400,224939,59822,29,pink,pink,pink,pink,1,1399.5,pinkGREEN,165.117,226338.5,1564.617,1,28.422,231.224,434.025,202.828,405.629,608.464
bas,stp,1,115825,bas_stp_run1_115825,PINK,c,pc50,pink,3600,229739,59822,30,pink,pink,pink,pink,1,1156.5,pinkPINK,169.917,230895.5,1326.417,1,28.422,231.224,434.025,202.828,405.629,608.464
bas,stp,1,115825,bas_stp_run1_115825,GREEN,i,pc50,yellow,1200,235738,59822,31,yellow,yellow,yellow,yellow,1,1095,yellowGREEN,175.916,236833,1270.916,1,28.422,231.224,434.025,202.828,405.629,608.464
bas,stp,1,115825,bas_stp_run1_115825,BLACK,i,pc50,green,3600,239337,59822,32,green,green,green,green,1,1497,greenBLACK,179.515,240834,1676.515,1,28.422,231.224,434.025,202.828,405.629,608.464
bas,stp,1,115825,bas_stp_run1_115825,YELLOW,c,pc50,yellow,3600,245336,59822,33,yellow,yellow,yellow,yellow,1,1191,yellowYELLOW,185.514,246527,1376.514,1,28.422,231.224,434.025,202.828,405.629,608.464
bas,stp,1,115825,bas_stp_run1_115825,WHITE,c,mc,white,2400,251335,59822,34,white,white,white,white,1,850,whiteWHITE,191.513,252185,1041.513,1,28.422,231.224,434.025,202.828,405.629,608.464
bas,stp,1,115825,bas_stp_run1_115825,BLUE,c,mc,blue,1200,256134,59822,35,blue,blue,blue,blue,1,803.5,blueBLUE,196.312,256937.5,999.812,1,28.422,231.224,434.025,202.828,405.629,608.464
bas,stp,1,115825,bas_stp_run1_115825,GREEN,c,pc50,green,1200,259734,59822,36,green,green,green,green,1,816.5,greenGREEN,199.912,260550.5,1016.412,1,28.422,231.224,434.025,202.828,405.629,608.464
bas,stp,1,115825,bas_stp_run1_115825,BLUE,c,mc,blue,2400,293345,59822,37,blue,blue,blue,blue,1,763.5,blueBLUE,233.523,294108.5,997.023,1,28.422,231.224,434.025,202.828,405.629,608.464
bas,stp,1,115825,bas_stp_run1_115825,WHITE,c,mc,white,2400,298145,59822,38,white,white,white,white,1,785,whiteWHITE,238.323,298930,1023.323,1,28.422,231.224,434.025,202.828,405.629,608.464
bas,stp,1,115825,bas_stp_run1_115825,PINK,c,pc50,pink,1200,302944,59822,39,pink,pink,pink,pink,1,887,pinkPINK,243.122,303831,1130.122,1,28.422,231.224,434.025,202.828,405.629,608.464
bas,stp,1,115825,bas_stp_run1_115825,PINK,i,pc50,black,2400,306543,59822,40,black,black,black,black,1,1067,blackPINK,246.721,307610,1313.721,1,28.422,231.224,434.025,202.828,405.629,608.464
bas,stp,1,115825,bas_stp_run1_115825,RED,c,mc,red,3600,311342,59822,41,red,red,red,red,1,860.5,redRED,251.52,312202.5,1112.02,1,28.422,231.224,434.025,202.828,405.629,608.464
bas,stp,1,115825,bas_stp_run1_115825,PURPLE,c,mc,purple,1200,317341,59822,42,purple,purple,purple,purple,1,818.5,purplePURPLE,257.519,318159.5,1076.019,1,28.422,231.224,434.025,202.828,405.629,608.464
bas,stp,1,115825,bas_stp_run1_115825,GREEN,i,pc50,pink,3600,320941,59822,43,"unintelligible- """"""""blpink""""""""",unintelligible utterance then pink,pink,"",unintelligible,1033,pinkGREEN,261.119,321974,1294.119,,28.422,231.224,434.025,202.828,405.629,608.464
bas,stp,1,115825,bas_stp_run1_115825,GREEN,c,pc50,green,3600,326940,59822,44,green,green,green,green,1,983,greenGREEN,267.118,327923,1250.118,1,28.422,231.224,434.025,202.828,405.629,608.464
bas,stp,1,115825,bas_stp_run1_115825,BLACK,i,pc50,green,3600,332939,59822,45,"unintelligible utterance before """"""""green""""""""",green,green,green,1,2064.5,greenBLACK,273.117,335003.5,2337.617,1,28.422,231.224,434.025,202.828,405.629,608.464
bas,stp,1,115825,bas_stp_run1_115825,WHITE,c,mc,white,2400,338938,59822,46,white,white,white,white,1,849,whiteWHITE,279.116,339787,1128.116,1,28.422,231.224,434.025,202.828,405.629,608.464
bas,stp,1,115825,bas_stp_run1_115825,WHITE,c,mc,white,1200,343737,59822,47,white,white,white,white,1,960,whiteWHITE,283.915,344697,1243.915,1,28.422,231.224,434.025,202.828,405.629,608.464
bas,stp,1,115825,bas_stp_run1_115825,YELLOW,i,pc50,black,1200,347337,59822,48,black,black,black,black,1,1227.5,blackYELLOW,287.515,348564.5,1515.015,1,28.422,231.224,434.025,202.828,405.629,608.464
bas,stp,1,115825,bas_stp_run1_115825,RED,c,mc,red,3600,350936,59822,49,red,red,red,red,1,821,redRED,291.114,351757,1112.114,1,28.422,231.224,434.025,202.828,405.629,608.464
bas,stp,1,115825,bas_stp_run1_115825,BLACK,c,pc50,black,3600,356935,59822,50,black,black,black,black,1,1061,blackBLACK,297.113,357996,1358.113,1,28.422,231.224,434.025,202.828,405.629,608.464
bas,stp,1,115825,bas_stp_run1_115825,WHITE,c,mc,white,1200,362934,59822,51,white,white,white,white,1,767.5,whiteWHITE,303.112,363701.5,1070.612,1,28.422,231.224,434.025,202.828,405.629,608.464
bas,stp,1,115825,bas_stp_run1_115825,GREEN,i,pc50,yellow,1200,366534,59822,52,yellow,yellow,yellow,yellow,1,959.5,yellowGREEN,306.712,367493.5,1266.212,1,28.422,231.224,434.025,202.828,405.629,608.464
bas,stp,1,115825,bas_stp_run1_115825,BLUE,c,mc,blue,2400,370133,59822,53,blue,blue,blue,blue,1,715.5,blueBLUE,310.311,370848.5,1025.811,1,28.422,231.224,434.025,202.828,405.629,608.464
bas,stp,1,115825,bas_stp_run1_115825,WHITE,i,mc,blue,2400,374932,59822,54,blue,blue,blue,blue,1,1419.5,blueWHITE,315.11,376351.5,1734.61,1,28.422,231.224,434.025,202.828,405.629,608.464
bas,stp,1,115825,bas_stp_run1_115825,RED,i,mc,white,1200,379732,59822,55,white,white,white,white,1,1325,whiteRED,319.91,381057,1644.91,1,28.422,231.224,434.025,202.828,405.629,608.464
bas,stp,1,115825,bas_stp_run1_115825,BLUE,c,mc,blue,2400,383331,59822,56,blue,blue,blue,blue,1,1039.5,blueBLUE,323.509,384370.5,1363.009,1,28.422,231.224,434.025,202.828,405.629,608.464
bas,stp,1,115825,bas_stp_run1_115825,YELLOW,c,pc50,yellow,3600,388147,59822,57,yellow,yellow,yellow,yellow,1,841,yellowYELLOW,328.325,388988,1169.325,1,28.422,231.224,434.025,202.828,405.629,608.464
bas,stp,1,115825,bas_stp_run1_115825,PURPLE,c,mc,purple,1200,394146,59822,58,purple,purple,purple,purple,1,771.5,purplePURPLE,334.324,394917.5,1105.824,1,28.422,231.224,434.025,202.828,405.629,608.464
bas,stp,1,115825,bas_stp_run1_115825,PURPLE,i,mc,white,3600,397745,59822,59,white,white,white,white,1,1005.5,whitePURPLE,337.923,398750.5,1343.423,1,28.422,231.224,434.025,202.828,405.629,608.464
bas,stp,1,115825,bas_stp_run1_115825,PURPLE,i,mc,red,2400,403744,59822,60,red,red,red,red,1,1097.5,redPURPLE,343.922,404841.5,1441.422,1,28.422,231.224,434.025,202.828,405.629,608.464
bas,stp,1,115825,bas_stp_run1_115825,YELLOW,c,pc50,yellow,1200,408544,59822,61,yellow,yellow,yellow,yellow,1,908.5,yellowYELLOW,348.722,409452.5,1257.222,1,28.422,231.224,434.025,202.828,405.629,608.464
bas,stp,1,115825,bas_stp_run1_115825,BLUE,c,mc,blue,3600,412143,59822,62,blue,blue,blue,blue,1,852.5,blueBLUE,352.321,412995.5,1204.821,1,28.422,231.224,434.025,202.828,405.629,608.464
bas,stp,1,115825,bas_stp_run1_115825,GREEN,c,pc50,green,2400,418142,59822,63,green,green,green,green,1,839.5,greenGREEN,358.32,418981.5,1197.82,1,28.422,231.224,434.025,202.828,405.629,608.464
bas,stp,1,115825,bas_stp_run1_115825,BLUE,i,mc,purple,2400,422941,59822,64,purple,purple,purple,purple,1,1040.5,purpleBLUE,363.119,423981.5,1403.619,1,28.422,231.224,434.025,202.828,405.629,608.464
bas,stp,1,115825,bas_stp_run1_115825,PURPLE,c,mc,purple,3600,427741,59822,65,purple,purple,purple,purple,1,907.5,purplePURPLE,367.919,428648.5,1275.419,1,28.422,231.224,434.025,202.828,405.629,608.464
bas,stp,1,115825,bas_stp_run1_115825,YELLOW,i,pc50,pink,1200,433740,59822,66,pink,pink,pink,pink,1,1076,pinkYELLOW,373.918,434816,1449.918,1,28.422,231.224,434.025,202.828,405.629,608.464
bas,stp,1,115825,bas_stp_run1_115825,PURPLE,c,mc,purple,3600,437339,59822,67,purple,purple,purple,purple,1,869.5,purplePURPLE,377.517,438208.5,1247.017,1,28.422,231.224,434.025,202.828,405.629,608.464
bas,stp,1,115825,bas_stp_run1_115825,PURPLE,c,mc,purple,2400,443338,59822,68,purple,purple,purple,purple,1,755.5,purplePURPLE,383.516,444093.5,1139.016,1,28.422,231.224,434.025,202.828,405.629,608.464
bas,stp,1,115825,bas_stp_run1_115825,BLUE,i,mc,red,2400,448137,59822,69,red,red,red,red,1,923,redBLUE,388.315,449060,1311.315,1,28.422,231.224,434.025,202.828,405.629,608.464
bas,stp,1,115825,bas_stp_run1_115825,RED,c,mc,red,1200,452937,59822,70,red,red,red,red,1,1063.5,redRED,393.115,454000.5,1456.615,1,28.422,231.224,434.025,202.828,405.629,608.464
bas,stp,1,115825,bas_stp_run1_115825,RED,c,mc,red,1200,456536,59822,71,red,red,red,red,1,612.5,redRED,396.714,457148.5,1009.214,1,28.422,231.224,434.025,202.828,405.629,608.464
bas,stp,1,115825,bas_stp_run1_115825,BLUE,c,mc,blue,3600,460135,59822,72,blue,blue,blue,blue,1,613,blueBLUE,400.313,460748,1013.313,1,28.422,231.224,434.025,202.828,405.629,608.464
bas,stp,1,115825,bas_stp_run1_115825,YELLOW,c,pc50,yellow,3600,496146,59822,73,yellow,yellow,yellow,yellow,1,782.5,yellowYELLOW,436.324,496928.5,1218.824,1,28.422,231.224,434.025,202.828,405.629,608.464
bas,stp,1,115825,bas_stp_run1_115825,WHITE,i,mc,blue,1200,502145,59822,74,blue,blue,blue,blue,1,1232.5,blueWHITE,442.323,503377.5,1674.823,1,28.422,231.224,434.025,202.828,405.629,608.464
bas,stp,1,115825,bas_stp_run1_115825,BLUE,c,mc,blue,2400,505745,59822,75,blue,blue,blue,blue,1,838.5,blueBLUE,445.923,506583.5,1284.423,1,28.422,231.224,434.025,202.828,405.629,608.464
bas,stp,1,115825,bas_stp_run1_115825,WHITE,c,mc,white,3600,510544,59822,76,white,white,white,white,1,926.5,whiteWHITE,450.722,511470.5,1377.222,1,28.422,231.224,434.025,202.828,405.629,608.464
bas,stp,1,115825,bas_stp_run1_115825,YELLOW,i,pc50,black,2400,516543,59822,77,black,black,black,black,1,987,blackYELLOW,456.721,517530,1443.721,1,28.422,231.224,434.025,202.828,405.629,608.464
bas,stp,1,115825,bas_stp_run1_115825,PURPLE,c,mc,purple,2400,521342,59822,78,purple,purple,purple,purple,1,929,purplePURPLE,461.52,522271,1390.52,1,28.422,231.224,434.025,202.828,405.629,608.464
bas,stp,1,115825,bas_stp_run1_115825,PURPLE,c,mc,purple,3600,526142,59822,79,purple,purple,purple,purple,1,774,purplePURPLE,466.32,526916,1240.32,1,28.422,231.224,434.025,202.828,405.629,608.464
bas,stp,1,115825,bas_stp_run1_115825,RED,c,mc,red,1200,532141,59822,80,red,red,red,red,1,857.5,redRED,472.319,532998.5,1329.819,1,28.422,231.224,434.025,202.828,405.629,608.464
bas,stp,1,115825,bas_stp_run1_115825,PURPLE,c,mc,purple,1200,535740,59822,81,purple,purple,purple,purple,1,812.5,purplePURPLE,475.918,536552.5,1288.418,1,28.422,231.224,434.025,202.828,405.629,608.464
bas,stp,1,115825,bas_stp_run1_115825,YELLOW,c,pc50,yellow,2400,539340,59822,82,yellow,yellow,yellow,yellow,1,786,yellowYELLOW,479.518,540126,1265.518,1,28.422,231.224,434.025,202.828,405.629,608.464
bas,stp,1,115825,bas_stp_run1_115825,BLUE,c,mc,blue,1200,544139,59822,83,blue,blue,blue,blue,1,691.5,blueBLUE,484.317,544830.5,1175.817,1,28.422,231.224,434.025,202.828,405.629,608.464
bas,stp,1,115825,bas_stp_run1_115825,BLUE,c,mc,blue,3600,547738,59822,84,blue,blue,blue,blue,1,710.5,blueBLUE,487.916,548448.5,1198.416,1,28.422,231.224,434.025,202.828,405.629,608.464
bas,stp,1,115825,bas_stp_run1_115825,RED,c,mc,red,1200,553737,59822,85,red,red,red,red,1,848,redRED,493.915,554585,1341.915,1,28.422,231.224,434.025,202.828,405.629,608.464
bas,stp,1,115825,bas_stp_run1_115825,BLUE,c,mc,blue,1200,557337,59822,86,blue,blue,blue,blue,1,698.5,blueBLUE,497.515,558035.5,1196.015,1,28.422,231.224,434.025,202.828,405.629,608.464
bas,stp,1,115825,bas_stp_run1_115825,YELLOW,i,pc50,pink,2400,560936,59822,87,pink,pink,pink,pink,1,918.5,pinkYELLOW,501.114,561854.5,1419.614,1,28.422,231.224,434.025,202.828,405.629,608.464
bas,stp,1,115825,bas_stp_run1_115825,BLUE,c,mc,blue,3600,565735,59822,88,blue,blue,blue,blue,1,744,blueBLUE,505.913,566479,1249.913,1,28.422,231.224,434.025,202.828,405.629,608.464
bas,stp,1,115825,bas_stp_run1_115825,BLACK,i,pc50,green,1200,571734,59822,89,green,green,green,green,1,1276.5,greenBLACK,511.912,573010.5,1788.412,1,28.422,231.224,434.025,202.828,405.629,608.464
bas,stp,1,115825,bas_stp_run1_115825,PURPLE,i,mc,white,3600,575334,59822,90,white,white,white,white,1,831,whitePURPLE,515.512,576165,1346.512,1,28.422,231.224,434.025,202.828,405.629,608.464
bas,stp,1,115825,bas_stp_run1_115825,GREEN,i,pc50,yellow,2400,581333,59822,91,yellow,yellow,yellow,yellow,1,927,yellowGREEN,521.511,582260,1448.511,1,28.422,231.224,434.025,202.828,405.629,608.464
bas,stp,1,115825,bas_stp_run1_115825,PINK,i,pc50,black,3600,586132,59822,92,black,black,black,black,1,1064,blackPINK,526.31,587196,1590.31,1,28.422,231.224,434.025,202.828,405.629,608.464
bas,stp,1,115825,bas_stp_run1_115825,BLUE,i,mc,red,2400,592131,59822,93,red,red,red,red,1,1337,redBLUE,532.309,593468,1869.309,1,28.422,231.224,434.025,202.828,405.629,608.464
bas,stp,1,115825,bas_stp_run1_115825,RED,c,mc,red,1200,596947,59822,94,red,red,red,red,1,872,redRED,537.125,597819,1409.125,1,28.422,231.224,434.025,202.828,405.629,608.464
