session,task,run,subj,name,trial.type,load,numtrials,probe,iti,acc,rt,resp,cresp,time.cue.onset.abs,time.target.onset.abs,time.rt.abs,time.scan.start,trial.num,time.cue.onset,time.target.onset,time.rt,time.block1.on,time.block2.on,time.block3.on,time.block1.off,time.block2.off,time.block3.off
bas,ste,1,102008,bas_ste_run1_102008,NP,5,3,syrup,4000,1,1234,2,2,154438,163237,164471,123626,1,30.812,39.611,40.845,28.412,256.41,484.423,228.031,456.028,684.025
bas,ste,1,102008,bas_ste_run1_102008,NN,8,2,scale,1600,1,871,1,1,168836,177634,178505,123626,2,45.21,54.008,54.879,28.412,256.41,484.423,228.031,456.028,684.025
bas,ste,1,102008,bas_ste_run1_102008,NN,8,2,doll,4000,1,1077,1,1,180834,189649,190726,123626,3,57.208,66.023,67.1,28.412,256.41,484.423,228.031,456.028,684.025
bas,ste,1,102008,bas_ste_run1_102008,NP,5,3,threat,2800,1,741,2,2,195248,204047,204788,123626,4,71.622,80.421,81.162,28.412,256.41,484.423,228.031,456.028,684.025
bas,ste,1,102008,bas_ste_run1_102008,NN,6,1,parrot,2800,1,545,1,1,208446,217245,217790,123626,5,84.82,93.619,94.164,28.412,256.41,484.423,228.031,456.028,684.025
bas,ste,1,102008,bas_ste_run1_102008,NP,8,2,chance,2800,1,676,2,2,221644,230443,231119,123626,6,98.018,106.817,107.493,28.412,256.41,484.423,228.031,456.028,684.025
bas,ste,1,102008,bas_ste_run1_102008,NN,5,2,blur,4000,1,627,1,1,234842,243641,244268,123626,7,111.216,120.015,120.642,28.412,256.41,484.423,228.031,456.028,684.025
bas,ste,1,102008,bas_ste_run1_102008,NP,7,2,rash,1600,1,583,2,2,249240,258038,258621,123626,8,125.614,134.412,134.995,28.412,256.41,484.423,228.031,456.028,684.025
bas,ste,1,102008,bas_ste_run1_102008,NN,5,2,tube,1600,1,581,1,1,261238,270036,270617,123626,9,137.612,146.41,146.991,28.412,256.41,484.423,228.031,456.028,684.025
bas,ste,1,102008,bas_ste_run1_102008,NP,5,3,share,2800,1,834,2,2,273236,282034,282868,123626,10,149.61,158.408,159.242,28.412,256.41,484.423,228.031,456.028,684.025
bas,ste,1,102008,bas_ste_run1_102008,NP,7,2,wealth,1600,0,751,1,2,286434,295249,296000,123626,11,162.808,171.623,172.374,28.412,256.41,484.423,228.031,456.028,684.025
bas,ste,1,102008,bas_ste_run1_102008,NP,8,2,bush,2800,0,1340,1,2,298449,307247,308587,123626,12,174.823,183.621,184.961,28.412,256.41,484.423,228.031,456.028,684.025
bas,ste,1,102008,bas_ste_run1_102008,NN,7,1,straw,4000,1,814,1,1,311646,320445,321259,123626,13,188.02,196.819,197.633,28.412,256.41,484.423,228.031,456.028,684.025
bas,ste,1,102008,bas_ste_run1_102008,NP,6,1,frost,1600,1,712,2,2,326044,334843,335555,123626,14,202.418,211.217,211.929,28.412,256.41,484.423,228.031,456.028,684.025
bas,ste,1,102008,bas_ste_run1_102008,RN,5,1,quart,4000,1,598,1,1,338042,346841,347439,123626,15,214.416,223.215,223.813,28.412,256.41,484.423,228.031,456.028,684.025
bas,ste,1,102008,bas_ste_run1_102008,NN,6,1,taxi,2800,1,692,1,1,382435,391234,391926,123626,16,258.809,267.608,268.3,28.412,256.41,484.423,228.031,456.028,684.025
bas,ste,1,102008,bas_ste_run1_102008,NN,8,2,liar,4000,1,670,1,1,395633,404448,405118,123626,17,272.007,280.822,281.492,28.412,256.41,484.423,228.031,456.028,684.025
bas,ste,1,102008,bas_ste_run1_102008,NP,7,2,need,4000,1,1616,2,2,410048,418846,420462,123626,18,286.422,295.22,296.836,28.412,256.41,484.423,228.031,456.028,684.025
bas,ste,1,102008,bas_ste_run1_102008,NP,7,2,bean,1600,1,928,2,2,424445,433244,434172,123626,19,300.819,309.618,310.546,28.412,256.41,484.423,228.031,456.028,684.025
bas,ste,1,102008,bas_ste_run1_102008,NP,8,3,bees,2800,1,667,2,2,436443,445242,445909,123626,20,312.817,321.616,322.283,28.412,256.41,484.423,228.031,456.028,684.025
bas,ste,1,102008,bas_ste_run1_102008,NP,5,3,visit,2800,1,552,2,2,449641,458440,458992,123626,21,326.015,334.814,335.366,28.412,256.41,484.423,228.031,456.028,684.025
bas,ste,1,102008,bas_ste_run1_102008,NN,7,1,logic,1600,1,624,1,1,462839,471638,472262,123626,22,339.213,348.012,348.636,28.412,256.41,484.423,228.031,456.028,684.025
bas,ste,1,102008,bas_ste_run1_102008,NP,5,3,people,4000,1,704,2,2,474837,483636,484340,123626,23,351.211,360.01,360.714,28.412,256.41,484.423,228.031,456.028,684.025
bas,ste,1,102008,bas_ste_run1_102008,NN,8,2,heater,1600,0,774,2,1,489235,498034,498808,123626,24,365.609,374.408,375.182,28.412,256.41,484.423,228.031,456.028,684.025
bas,ste,1,102008,bas_ste_run1_102008,RN,5,1,noise,1600,0,916,2,1,501233,510048,510964,123626,25,377.607,386.422,387.338,28.412,256.41,484.423,228.031,456.028,684.025
bas,ste,1,102008,bas_ste_run1_102008,NN,5,2,pole,2800,0,1124,2,1,513248,522046,523170,123626,26,389.622,398.42,399.544,28.412,256.41,484.423,228.031,456.028,684.025
bas,ste,1,102008,bas_ste_run1_102008,NP,8,3,city,1600,1,808,2,2,526446,535244,536052,123626,27,402.82,411.618,412.426,28.412,256.41,484.423,228.031,456.028,684.025
bas,ste,1,102008,bas_ste_run1_102008,NP,8,3,carpet,4000,1,652,2,2,538444,547242,547894,123626,28,414.818,423.616,424.268,28.412,256.41,484.423,228.031,456.028,684.025
bas,ste,1,102008,bas_ste_run1_102008,NP,5,3,tags,4000,1,1192,2,2,552842,561640,562832,123626,29,429.216,438.014,439.206,28.412,256.41,484.423,228.031,456.028,684.025
bas,ste,1,102008,bas_ste_run1_102008,NN,5,2,greed,2800,1,700,1,1,567239,576038,576738,123626,30,443.613,452.412,453.112,28.412,256.41,484.423,228.031,456.028,684.025
bas,ste,1,102008,bas_ste_run1_102008,NN,5,2,pans,1600,1,682,1,1,610449,619248,619930,123626,31,486.823,495.622,496.304,28.412,256.41,484.423,228.031,456.028,684.025
bas,ste,1,102008,bas_ste_run1_102008,NP,5,3,muscle,1600,1,1121,2,2,622447,631246,632367,123626,32,498.821,507.62,508.741,28.412,256.41,484.423,228.031,456.028,684.025
bas,ste,1,102008,bas_ste_run1_102008,NP,8,2,bugs,1600,1,1071,2,2,634445,643244,644315,123626,33,510.819,519.618,520.689,28.412,256.41,484.423,228.031,456.028,684.025
bas,ste,1,102008,bas_ste_run1_102008,RN,5,1,fusion,2800,1,752,1,1,646443,655242,655994,123626,34,522.817,531.616,532.368,28.412,256.41,484.423,228.031,456.028,684.025
bas,ste,1,102008,bas_ste_run1_102008,NN,8,2,shell,1600,1,933,1,1,659641,668440,669373,123626,35,536.015,544.814,545.747,28.412,256.41,484.423,228.031,456.028,684.025
bas,ste,1,102008,bas_ste_run1_102008,NP,7,1,clue,1600,1,997,2,2,671639,680438,681435,123626,36,548.013,556.812,557.809,28.412,256.41,484.423,228.031,456.028,684.025
bas,ste,1,102008,bas_ste_run1_102008,NP,8,2,wife,2800,0,0,,2,683637,692436,0,123626,37,560.011,568.81,-123.626,28.412,256.41,484.423,228.031,456.028,684.025
bas,ste,1,102008,bas_ste_run1_102008,NN,5,2,gift,2800,1,1018,1,1,696835,705634,706652,123626,38,573.209,582.008,583.026,28.412,256.41,484.423,228.031,456.028,684.025
bas,ste,1,102008,bas_ste_run1_102008,NP,6,1,food,2800,1,612,2,2,710033,718849,719461,123626,39,586.407,595.223,595.835,28.412,256.41,484.423,228.031,456.028,684.025
bas,ste,1,102008,bas_ste_run1_102008,RN,8,1,ground,2800,0,803,2,1,723248,732046,732849,123626,40,599.622,608.42,609.223,28.412,256.41,484.423,228.031,456.028,684.025
bas,ste,1,102008,bas_ste_run1_102008,NP,5,3,marker,4000,1,677,2,2,736446,745244,745921,123626,41,612.82,621.618,622.295,28.412,256.41,484.423,228.031,456.028,684.025
bas,ste,1,102008,bas_ste_run1_102008,NN,8,2,signal,4000,1,704,1,1,750843,759642,760346,123626,42,627.217,636.016,636.72,28.412,256.41,484.423,228.031,456.028,684.025
bas,ste,1,102008,bas_ste_run1_102008,NP,5,3,curve,4000,1,894,2,2,765241,774040,774934,123626,43,641.615,650.414,651.308,28.412,256.41,484.423,228.031,456.028,684.025
bas,ste,1,102008,bas_ste_run1_102008,NN,7,2,pledge,4000,1,945,1,1,779639,788438,789383,123626,44,656.013,664.812,665.757,28.412,256.41,484.423,228.031,456.028,684.025
bas,ste,1,102008,bas_ste_run1_102008,NN,7,2,berry,4000,1,788,1,1,794037,802835,803623,123626,45,670.411,679.209,679.997,28.412,256.41,484.423,228.031,456.028,684.025
bas,ste,2,102008,bas_ste_run2_102008,NP,5,3,north,4000,1,1130,2,2,70727,79543,80673,39915,1,30.812,39.628,40.758,28.429,256.427,484.424,228.031,456.028,684.025
bas,ste,2,102008,bas_ste_run2_102008,NP,5,3,ransom,1600,1,965,2,2,85142,93940,94905,39915,2,45.227,54.025,54.99,28.429,256.427,484.424,228.031,456.028,684.025
bas,ste,2,102008,bas_ste_run2_102008,NN,5,2,chin,1600,1,744,1,1,97140,105938,106682,39915,3,57.225,66.023,66.767,28.429,256.427,484.424,228.031,456.028,684.025
bas,ste,2,102008,bas_ste_run2_102008,NN,6,1,whale,2800,1,793,1,1,109138,117936,118729,39915,4,69.223,78.021,78.814,28.429,256.427,484.424,228.031,456.028,684.025
bas,ste,2,102008,bas_ste_run2_102008,NN,8,2,cotton,1600,1,912,1,1,122336,131134,132046,39915,5,82.421,91.219,92.131,28.429,256.427,484.424,228.031,456.028,684.025
bas,ste,2,102008,bas_ste_run2_102008,NP,5,3,wheel,2800,1,915,2,2,134334,143132,144047,39915,6,94.419,103.217,104.132,28.429,256.427,484.424,228.031,456.028,684.025
bas,ste,2,102008,bas_ste_run2_102008,RN,5,1,cabin,4000,0,859,2,1,147532,156330,157189,39915,7,107.617,116.415,117.274,28.429,256.427,484.424,228.031,456.028,684.025
bas,ste,2,102008,bas_ste_run2_102008,NN,5,2,hatch,4000,1,714,1,1,161929,170728,171442,39915,8,122.014,130.813,131.527,28.429,256.427,484.424,228.031,456.028,684.025
bas,ste,2,102008,bas_ste_run2_102008,NN,7,1,flame,2800,1,784,1,1,176327,185142,185926,39915,9,136.412,145.227,146.011,28.429,256.427,484.424,228.031,456.028,684.025
bas,ste,2,102008,bas_ste_run2_102008,NP,6,1,dollar,4000,1,837,2,2,189542,198340,199177,39915,10,149.627,158.425,159.262,28.429,256.427,484.424,228.031,456.028,684.025
bas,ste,2,102008,bas_ste_run2_102008,NP,8,2,exam,2800,0,880,1,2,203939,212738,213618,39915,11,164.024,172.823,173.703,28.429,256.427,484.424,228.031,456.028,684.025
bas,ste,2,102008,bas_ste_run2_102008,NN,8,2,lesson,2800,1,670,1,1,217137,225936,226606,39915,12,177.222,186.021,186.691,28.429,256.427,484.424,228.031,456.028,684.025
bas,ste,2,102008,bas_ste_run2_102008,NP,7,1,teeth,1600,1,884,2,2,230335,239134,240018,39915,13,190.42,199.219,200.103,28.429,256.427,484.424,228.031,456.028,684.025
bas,ste,2,102008,bas_ste_run2_102008,NP,8,2,kids,4000,1,732,2,2,242333,251132,251864,39915,14,202.418,211.217,211.949,28.429,256.427,484.424,228.031,456.028,684.025
bas,ste,2,102008,bas_ste_run2_102008,RN,7,1,jars,1600,1,1549,1,1,256731,265530,267079,39915,15,216.816,225.615,227.164,28.429,256.427,484.424,228.031,456.028,684.025
bas,ste,2,102008,bas_ste_run2_102008,NP,5,3,harp,1600,1,968,2,2,298741,307540,308508,39915,16,258.826,267.625,268.593,28.429,256.427,484.424,228.031,456.028,684.025
bas,ste,2,102008,bas_ste_run2_102008,NN,8,2,sled,1600,1,726,1,1,310739,319538,320264,39915,17,270.824,279.623,280.349,28.429,256.427,484.424,228.031,456.028,684.025
bas,ste,2,102008,bas_ste_run2_102008,RN,8,1,house,1600,1,1069,1,1,322737,331536,332605,39915,18,282.822,291.621,292.69,28.429,256.427,484.424,228.031,456.028,684.025
bas,ste,2,102008,bas_ste_run2_102008,NP,5,3,store,1600,1,704,2,2,334735,343534,344238,39915,19,294.82,303.619,304.323,28.429,256.427,484.424,228.031,456.028,684.025
bas,ste,2,102008,bas_ste_run2_102008,RN,5,1,soil,2800,1,1167,1,1,346734,355532,356699,39915,20,306.819,315.617,316.784,28.429,256.427,484.424,228.031,456.028,684.025
bas,ste,2,102008,bas_ste_run2_102008,NN,6,1,zebra,4000,1,726,1,1,359931,368730,369456,39915,21,320.016,328.815,329.541,28.429,256.427,484.424,228.031,456.028,684.025
bas,ste,2,102008,bas_ste_run2_102008,NP,8,2,action,4000,1,957,2,2,374329,383128,384085,39915,22,334.414,343.213,344.17,28.429,256.427,484.424,228.031,456.028,684.025
bas,ste,2,102008,bas_ste_run2_102008,NN,7,1,poison,2800,1,1747,1,1,388727,397542,399289,39915,23,348.812,357.627,359.374,28.429,256.427,484.424,228.031,456.028,684.025
bas,ste,2,102008,bas_ste_run2_102008,NN,5,2,heaven,2800,1,668,1,1,401941,410740,411408,39915,24,362.026,370.825,371.493,28.429,256.427,484.424,228.031,456.028,684.025
bas,ste,2,102008,bas_ste_run2_102008,NP,8,2,text,4000,1,993,2,2,415139,423938,424931,39915,25,375.224,384.023,385.016,28.429,256.427,484.424,228.031,456.028,684.025
bas,ste,2,102008,bas_ste_run2_102008,NP,5,3,others,1600,1,563,2,2,429537,438336,438899,39915,26,389.622,398.421,398.984,28.429,256.427,484.424,228.031,456.028,684.025
bas,ste,2,102008,bas_ste_run2_102008,NP,7,2,crime,4000,1,830,2,2,441535,450334,451164,39915,27,401.62,410.419,411.249,28.429,256.427,484.424,228.031,456.028,684.025
bas,ste,2,102008,bas_ste_run2_102008,NN,5,2,barber,2800,1,668,1,1,455933,464731,465399,39915,28,416.018,424.816,425.484,28.429,256.427,484.424,228.031,456.028,684.025
bas,ste,2,102008,bas_ste_run2_102008,NN,8,2,steel,2800,1,729,1,1,469131,477929,478658,39915,29,429.216,438.014,438.743,28.429,256.427,484.424,228.031,456.028,684.025
bas,ste,2,102008,bas_ste_run2_102008,NP,7,2,cherry,4000,1,1044,2,2,482329,491127,492171,39915,30,442.414,451.212,452.256,28.429,256.427,484.424,228.031,456.028,684.025
bas,ste,2,102008,bas_ste_run2_102008,NN,7,2,book,4000,1,852,1,1,526738,535537,536389,39915,31,486.823,495.622,496.474,28.429,256.427,484.424,228.031,456.028,684.025
bas,ste,2,102008,bas_ste_run2_102008,NP,7,1,photo,2800,1,1160,2,2,541136,549935,551095,39915,32,501.221,510.02,511.18,28.429,256.427,484.424,228.031,456.028,684.025
bas,ste,2,102008,bas_ste_run2_102008,NP,6,1,profit,4000,1,851,2,2,554334,563133,563984,39915,33,514.419,523.218,524.069,28.429,256.427,484.424,228.031,456.028,684.025
bas,ste,2,102008,bas_ste_run2_102008,NN,7,2,word,1600,1,768,1,1,568732,577530,578298,39915,34,528.817,537.615,538.383,28.429,256.427,484.424,228.031,456.028,684.025
bas,ste,2,102008,bas_ste_run2_102008,NP,8,3,paper,1600,1,866,2,2,580730,589528,590394,39915,35,540.815,549.613,550.479,28.429,256.427,484.424,228.031,456.028,684.025
bas,ste,2,102008,bas_ste_run2_102008,NP,8,3,pony,4000,1,630,2,2,592728,601543,602173,39915,36,552.813,561.628,562.258,28.429,256.427,484.424,228.031,456.028,684.025
bas,ste,2,102008,bas_ste_run2_102008,NP,5,3,fluid,2800,1,502,2,2,607142,615941,616443,39915,37,567.227,576.026,576.528,28.429,256.427,484.424,228.031,456.028,684.025
bas,ste,2,102008,bas_ste_run2_102008,NN,8,1,church,2800,1,1373,1,1,620340,629139,630512,39915,38,580.425,589.224,590.597,28.429,256.427,484.424,228.031,456.028,684.025
bas,ste,2,102008,bas_ste_run2_102008,NN,5,2,story,1600,1,680,1,1,633538,642337,643017,39915,39,593.623,602.422,603.102,28.429,256.427,484.424,228.031,456.028,684.025
bas,ste,2,102008,bas_ste_run2_102008,NP,5,3,yard,1600,1,1197,2,2,645536,654335,655532,39915,40,605.621,614.42,615.617,28.429,256.427,484.424,228.031,456.028,684.025
bas,ste,2,102008,bas_ste_run2_102008,RN,5,1,owner,1600,1,824,1,1,657534,666333,667157,39915,41,617.619,626.418,627.242,28.429,256.427,484.424,228.031,456.028,684.025
bas,ste,2,102008,bas_ste_run2_102008,NP,5,3,honey,4000,1,1053,2,2,669532,678331,679384,39915,42,629.617,638.416,639.469,28.429,256.427,484.424,228.031,456.028,684.025
bas,ste,2,102008,bas_ste_run2_102008,NN,6,1,cows,2800,1,742,1,1,683930,692729,693471,39915,43,644.015,652.814,653.556,28.429,256.427,484.424,228.031,456.028,684.025
bas,ste,2,102008,bas_ste_run2_102008,NP,8,3,pilot,4000,1,855,2,2,697128,705943,706798,39915,44,657.213,666.028,666.883,28.429,256.427,484.424,228.031,456.028,684.025
bas,ste,2,102008,bas_ste_run2_102008,NN,5,2,train,2800,1,1281,1,1,711542,720341,721622,39915,45,671.627,680.426,681.707,28.429,256.427,484.424,228.031,456.028,684.025
bas,ste,1,107321,bas_ste_run1_107321,NP,5,3,syrup,4000,1,1767,2,2,144578,153378,155145,113754,1,30.824,39.624,41.391,28.424,256.421,484.417,228.021,456.031,684.028
bas,ste,1,107321,bas_ste_run1_107321,NN,8,2,scale,4000,1,995,1,1,158978,167777,168772,113754,2,45.224,54.023,55.018,28.424,256.421,484.417,228.021,456.031,684.028
bas,ste,1,107321,bas_ste_run1_107321,NN,8,2,doll,4000,1,1579,1,1,173377,182177,183756,113754,3,59.623,68.423,70.002,28.424,256.421,484.417,228.021,456.031,684.028
bas,ste,1,107321,bas_ste_run1_107321,NP,5,3,threat,1600,0,700,1,2,187777,196577,197277,113754,4,74.023,82.823,83.523,28.424,256.421,484.417,228.021,456.031,684.028
bas,ste,1,107321,bas_ste_run1_107321,NN,6,1,parrot,1600,1,926,1,1,199777,208577,209503,113754,5,86.023,94.823,95.749,28.424,256.421,484.417,228.021,456.031,684.028
bas,ste,1,107321,bas_ste_run1_107321,NP,8,2,chance,2800,1,1121,2,2,211777,220577,221698,113754,6,98.023,106.823,107.944,28.424,256.421,484.417,228.021,456.031,684.028
bas,ste,1,107321,bas_ste_run1_107321,NN,5,2,blur,2800,1,1094,1,1,224977,233777,234871,113754,7,111.223,120.023,121.117,28.424,256.421,484.417,228.021,456.031,684.028
bas,ste,1,107321,bas_ste_run1_107321,NP,7,2,rash,1600,1,881,2,2,238176,246976,247857,113754,8,124.422,133.222,134.103,28.424,256.421,484.417,228.021,456.031,684.028
bas,ste,1,107321,bas_ste_run1_107321,NN,5,2,tube,4000,1,526,1,1,250176,258976,259502,113754,9,136.422,145.222,145.748,28.424,256.421,484.417,228.021,456.031,684.028
bas,ste,1,107321,bas_ste_run1_107321,NP,5,3,share,2800,1,1224,2,2,264576,273376,274600,113754,10,150.822,159.622,160.846,28.424,256.421,484.417,228.021,456.031,684.028
bas,ste,1,107321,bas_ste_run1_107321,NP,7,2,wealth,1600,1,949,2,2,277776,286576,287525,113754,11,164.022,172.822,173.771,28.424,256.421,484.417,228.021,456.031,684.028
bas,ste,1,107321,bas_ste_run1_107321,NP,8,2,bush,1600,0,1257,1,2,289776,298576,299833,113754,12,176.022,184.822,186.079,28.424,256.421,484.417,228.021,456.031,684.028
bas,ste,1,107321,bas_ste_run1_107321,NN,7,1,straw,2800,1,814,1,1,301776,310575,311389,113754,13,188.022,196.821,197.635,28.424,256.421,484.417,228.021,456.031,684.028
bas,ste,1,107321,bas_ste_run1_107321,NP,6,1,frost,4000,1,1273,2,2,314975,323775,325048,113754,14,201.221,210.021,211.294,28.424,256.421,484.417,228.021,456.031,684.028
bas,ste,1,107321,bas_ste_run1_107321,RN,5,1,quart,2800,1,639,1,1,329375,338175,338814,113754,15,215.621,224.421,225.06,28.424,256.421,484.417,228.021,456.031,684.028
bas,ste,1,107321,bas_ste_run1_107321,NN,6,1,taxi,1600,1,1007,1,1,372575,381374,382381,113754,16,258.821,267.62,268.627,28.424,256.421,484.417,228.021,456.031,684.028
bas,ste,1,107321,bas_ste_run1_107321,NN,8,2,liar,2800,1,1236,1,1,384574,393374,394610,113754,17,270.82,279.62,280.856,28.424,256.421,484.417,228.021,456.031,684.028
bas,ste,1,107321,bas_ste_run1_107321,NP,7,2,need,2800,1,1538,2,2,397774,406574,408112,113754,18,284.02,292.82,294.358,28.424,256.421,484.417,228.021,456.031,684.028
bas,ste,1,107321,bas_ste_run1_107321,NP,7,2,bean,2800,1,611,2,2,410974,419774,420385,113754,19,297.22,306.02,306.631,28.424,256.421,484.417,228.021,456.031,684.028
bas,ste,1,107321,bas_ste_run1_107321,NP,8,3,bees,4000,1,700,2,2,424174,432974,433674,113754,20,310.42,319.22,319.92,28.424,256.421,484.417,228.021,456.031,684.028
bas,ste,1,107321,bas_ste_run1_107321,NP,5,3,visit,2800,1,800,2,2,438574,447373,448173,113754,21,324.82,333.619,334.419,28.424,256.421,484.417,228.021,456.031,684.028
bas,ste,1,107321,bas_ste_run1_107321,NN,7,1,logic,2800,1,723,1,1,451773,460573,461296,113754,22,338.019,346.819,347.542,28.424,256.421,484.417,228.021,456.031,684.028
bas,ste,1,107321,bas_ste_run1_107321,NP,5,3,people,4000,1,1048,2,2,464973,473773,474821,113754,23,351.219,360.019,361.067,28.424,256.421,484.417,228.021,456.031,684.028
bas,ste,1,107321,bas_ste_run1_107321,NN,8,2,heater,4000,1,1277,1,1,479373,488173,489450,113754,24,365.619,374.419,375.696,28.424,256.421,484.417,228.021,456.031,684.028
bas,ste,1,107321,bas_ste_run1_107321,RN,5,1,noise,4000,1,917,1,1,493773,502573,503490,113754,25,380.019,388.819,389.736,28.424,256.421,484.417,228.021,456.031,684.028
bas,ste,1,107321,bas_ste_run1_107321,NN,5,2,pole,1600,0,0,,1,508173,516972,0,113754,26,394.419,403.218,-113.754,28.424,256.421,484.417,228.021,456.031,684.028
bas,ste,1,107321,bas_ste_run1_107321,NP,8,3,city,1600,0,1241,1,2,520172,528972,530213,113754,27,406.418,415.218,416.459,28.424,256.421,484.417,228.021,456.031,684.028
bas,ste,1,107321,bas_ste_run1_107321,NP,8,3,carpet,1600,1,634,2,2,532172,540972,541606,113754,28,418.418,427.218,427.852,28.424,256.421,484.417,228.021,456.031,684.028
bas,ste,1,107321,bas_ste_run1_107321,NP,5,3,tags,1600,1,655,2,2,544172,552972,553627,113754,29,430.418,439.218,439.873,28.424,256.421,484.417,228.021,456.031,684.028
bas,ste,1,107321,bas_ste_run1_107321,NN,5,2,greed,4000,1,668,1,1,556172,564972,565640,113754,30,442.418,451.218,451.886,28.424,256.421,484.417,228.021,456.031,684.028
bas,ste,1,107321,bas_ste_run1_107321,NN,5,2,pans,2800,1,909,1,1,600571,609371,610280,113754,31,486.817,495.617,496.526,28.424,256.421,484.417,228.021,456.031,684.028
bas,ste,1,107321,bas_ste_run1_107321,NP,5,3,muscle,1600,1,1030,2,2,613771,622571,623601,113754,32,500.017,508.817,509.847,28.424,256.421,484.417,228.021,456.031,684.028
bas,ste,1,107321,bas_ste_run1_107321,NP,8,2,bugs,1600,1,662,2,2,625771,634571,635233,113754,33,512.017,520.817,521.479,28.424,256.421,484.417,228.021,456.031,684.028
bas,ste,1,107321,bas_ste_run1_107321,RN,5,1,fusion,2800,1,836,1,1,637771,646571,647407,113754,34,524.017,532.817,533.653,28.424,256.421,484.417,228.021,456.031,684.028
bas,ste,1,107321,bas_ste_run1_107321,NN,8,2,shell,2800,1,1172,1,1,650971,659770,660942,113754,35,537.217,546.016,547.188,28.424,256.421,484.417,228.021,456.031,684.028
bas,ste,1,107321,bas_ste_run1_107321,NP,7,1,clue,1600,1,1197,2,2,664170,672970,674167,113754,36,550.416,559.216,560.413,28.424,256.421,484.417,228.021,456.031,684.028
bas,ste,1,107321,bas_ste_run1_107321,NP,8,2,wife,4000,1,1855,2,2,676170,684970,686825,113754,37,562.416,571.216,573.071,28.424,256.421,484.417,228.021,456.031,684.028
bas,ste,1,107321,bas_ste_run1_107321,NN,5,2,gift,4000,1,1342,1,1,690570,699370,700712,113754,38,576.816,585.616,586.958,28.424,256.421,484.417,228.021,456.031,684.028
bas,ste,1,107321,bas_ste_run1_107321,NP,6,1,food,2800,1,1792,2,2,704970,713770,715562,113754,39,591.216,600.016,601.808,28.424,256.421,484.417,228.021,456.031,684.028
bas,ste,1,107321,bas_ste_run1_107321,RN,8,1,ground,4000,0,1850,2,1,718170,726969,728819,113754,40,604.416,613.215,615.065,28.424,256.421,484.417,228.021,456.031,684.028
bas,ste,1,107321,bas_ste_run1_107321,NP,5,3,marker,2800,1,808,2,2,732569,741369,742177,113754,41,618.815,627.615,628.423,28.424,256.421,484.417,228.021,456.031,684.028
bas,ste,1,107321,bas_ste_run1_107321,NN,8,2,signal,4000,1,955,1,1,745769,754569,755524,113754,42,632.015,640.815,641.77,28.424,256.421,484.417,228.021,456.031,684.028
bas,ste,1,107321,bas_ste_run1_107321,NP,5,3,curve,1600,1,994,2,2,760169,768969,769963,113754,43,646.415,655.215,656.209,28.424,256.421,484.417,228.021,456.031,684.028
bas,ste,1,107321,bas_ste_run1_107321,NN,7,2,pledge,1600,1,1157,1,1,772169,780969,782126,113754,44,658.415,667.215,668.372,28.424,256.421,484.417,228.021,456.031,684.028
bas,ste,1,107321,bas_ste_run1_107321,NN,7,2,berry,4000,1,1074,1,1,784169,792968,794042,113754,45,670.415,679.214,680.288,28.424,256.421,484.417,228.021,456.031,684.028
bas,ste,2,107321,bas_ste_run2_107321,NP,5,3,north,1600,1,1105,2,2,77790,86590,87695,46975,1,30.815,39.615,40.72,28.415,256.412,484.409,228.026,456.022,684.019
bas,ste,2,107321,bas_ste_run2_107321,NP,5,3,ransom,1600,1,802,2,2,89790,98590,99392,46975,2,42.815,51.615,52.417,28.415,256.412,484.409,228.026,456.022,684.019
bas,ste,2,107321,bas_ste_run2_107321,NN,5,2,chin,2800,1,645,1,1,101790,110590,111235,46975,3,54.815,63.615,64.26,28.415,256.412,484.409,228.026,456.022,684.019
bas,ste,2,107321,bas_ste_run2_107321,NN,6,1,whale,4000,1,827,1,1,114990,123789,124616,46975,4,68.015,76.814,77.641,28.415,256.412,484.409,228.026,456.022,684.019
bas,ste,2,107321,bas_ste_run2_107321,NN,8,2,cotton,1600,1,1073,1,1,129389,138189,139262,46975,5,82.414,91.214,92.287,28.415,256.412,484.409,228.026,456.022,684.019
bas,ste,2,107321,bas_ste_run2_107321,NP,5,3,wheel,4000,1,686,2,2,141389,150189,150875,46975,6,94.414,103.214,103.9,28.415,256.412,484.409,228.026,456.022,684.019
bas,ste,2,107321,bas_ste_run2_107321,RN,5,1,cabin,4000,0,0,,1,155789,164589,0,46975,7,108.814,117.614,-46.975,28.415,256.412,484.409,228.026,456.022,684.019
bas,ste,2,107321,bas_ste_run2_107321,NN,5,2,hatch,2800,1,820,1,1,170189,178989,179809,46975,8,123.214,132.014,132.834,28.415,256.412,484.409,228.026,456.022,684.019
bas,ste,2,107321,bas_ste_run2_107321,NN,7,1,flame,2800,1,912,1,1,183389,192188,193100,46975,9,136.414,145.213,146.125,28.415,256.412,484.409,228.026,456.022,684.019
bas,ste,2,107321,bas_ste_run2_107321,NP,6,1,dollar,2800,1,826,2,2,196588,205388,206214,46975,10,149.613,158.413,159.239,28.415,256.412,484.409,228.026,456.022,684.019
bas,ste,2,107321,bas_ste_run2_107321,NP,8,2,exam,4000,1,671,2,2,209788,218588,219259,46975,11,162.813,171.613,172.284,28.415,256.412,484.409,228.026,456.022,684.019
bas,ste,2,107321,bas_ste_run2_107321,NN,8,2,lesson,2800,1,817,1,1,224188,232988,233805,46975,12,177.213,186.013,186.83,28.415,256.412,484.409,228.026,456.022,684.019
bas,ste,2,107321,bas_ste_run2_107321,NP,7,1,teeth,1600,1,736,2,2,237388,246188,246924,46975,13,190.413,199.213,199.949,28.415,256.412,484.409,228.026,456.022,684.019
bas,ste,2,107321,bas_ste_run2_107321,NP,8,2,kids,4000,1,1369,2,2,249388,258188,259557,46975,14,202.413,211.213,212.582,28.415,256.412,484.409,228.026,456.022,684.019
bas,ste,2,107321,bas_ste_run2_107321,RN,7,1,jars,1600,0,979,2,1,263787,272587,273566,46975,15,216.812,225.612,226.591,28.415,256.412,484.409,228.026,456.022,684.019
bas,ste,2,107321,bas_ste_run2_107321,NP,5,3,harp,4000,1,953,2,2,305787,314587,315540,46975,16,258.812,267.612,268.565,28.415,256.412,484.409,228.026,456.022,684.019
bas,ste,2,107321,bas_ste_run2_107321,NN,8,2,sled,2800,1,780,1,1,320187,328986,329766,46975,17,273.212,282.011,282.791,28.415,256.412,484.409,228.026,456.022,684.019
bas,ste,2,107321,bas_ste_run2_107321,RN,8,1,house,1600,1,1114,1,1,333386,342186,343300,46975,18,286.411,295.211,296.325,28.415,256.412,484.409,228.026,456.022,684.019
bas,ste,2,107321,bas_ste_run2_107321,NP,5,3,store,1600,0,1924,1,2,345386,354186,356110,46975,19,298.411,307.211,309.135,28.415,256.412,484.409,228.026,456.022,684.019
bas,ste,2,107321,bas_ste_run2_107321,RN,5,1,soil,4000,1,1420,1,1,357386,366186,367606,46975,20,310.411,319.211,320.631,28.415,256.412,484.409,228.026,456.022,684.019
bas,ste,2,107321,bas_ste_run2_107321,NN,6,1,zebra,4000,1,774,1,1,371786,380586,381360,46975,21,324.811,333.611,334.385,28.415,256.412,484.409,228.026,456.022,684.019
bas,ste,2,107321,bas_ste_run2_107321,NP,8,2,action,1600,0,957,1,2,386186,394986,395943,46975,22,339.211,348.011,348.968,28.415,256.412,484.409,228.026,456.022,684.019
bas,ste,2,107321,bas_ste_run2_107321,NN,7,1,poison,2800,1,872,1,1,398185,406985,407857,46975,23,351.21,360.01,360.882,28.415,256.412,484.409,228.026,456.022,684.019
bas,ste,2,107321,bas_ste_run2_107321,NN,5,2,heaven,1600,1,898,1,1,411385,420185,421083,46975,24,364.41,373.21,374.108,28.415,256.412,484.409,228.026,456.022,684.019
bas,ste,2,107321,bas_ste_run2_107321,NP,8,2,text,2800,0,1294,1,2,423385,432185,433479,46975,25,376.41,385.21,386.504,28.415,256.412,484.409,228.026,456.022,684.019
bas,ste,2,107321,bas_ste_run2_107321,NP,5,3,others,1600,1,1149,2,2,436585,445385,446534,46975,26,389.61,398.41,399.559,28.415,256.412,484.409,228.026,456.022,684.019
bas,ste,2,107321,bas_ste_run2_107321,NP,7,2,crime,4000,0,1478,1,2,448585,457385,458863,46975,27,401.61,410.41,411.888,28.415,256.412,484.409,228.026,456.022,684.019
bas,ste,2,107321,bas_ste_run2_107321,NN,5,2,barber,2800,1,894,1,1,462985,471784,472678,46975,28,416.01,424.809,425.703,28.415,256.412,484.409,228.026,456.022,684.019
bas,ste,2,107321,bas_ste_run2_107321,NN,8,2,steel,2800,1,865,1,1,476184,484984,485849,46975,29,429.209,438.009,438.874,28.415,256.412,484.409,228.026,456.022,684.019
bas,ste,2,107321,bas_ste_run2_107321,NP,7,2,cherry,4000,1,983,2,2,489384,498184,499167,46975,30,442.409,451.209,452.192,28.415,256.412,484.409,228.026,456.022,684.019
bas,ste,2,107321,bas_ste_run2_107321,NN,7,2,book,1600,1,919,1,1,533784,542583,543502,46975,31,486.809,495.608,496.527,28.415,256.412,484.409,228.026,456.022,684.019
bas,ste,2,107321,bas_ste_run2_107321,NP,7,1,photo,4000,0,1250,1,2,545783,554583,555833,46975,32,498.808,507.608,508.858,28.415,256.412,484.409,228.026,456.022,684.019
bas,ste,2,107321,bas_ste_run2_107321,NP,6,1,profit,4000,1,1427,2,2,560183,568983,570410,46975,33,513.208,522.008,523.435,28.415,256.412,484.409,228.026,456.022,684.019
bas,ste,2,107321,bas_ste_run2_107321,NN,7,2,word,4000,1,847,1,1,574583,583383,584230,46975,34,527.608,536.408,537.255,28.415,256.412,484.409,228.026,456.022,684.019
bas,ste,2,107321,bas_ste_run2_107321,NP,8,3,paper,4000,1,903,2,2,588983,597783,598686,46975,35,542.008,550.808,551.711,28.415,256.412,484.409,228.026,456.022,684.019
bas,ste,2,107321,bas_ste_run2_107321,NP,8,3,pony,1600,0,0,,2,603383,612182,0,46975,36,556.408,565.207,-46.975,28.415,256.412,484.409,228.026,456.022,684.019
bas,ste,2,107321,bas_ste_run2_107321,NP,5,3,fluid,1600,1,943,2,2,615382,624182,625125,46975,37,568.407,577.207,578.15,28.415,256.412,484.409,228.026,456.022,684.019
bas,ste,2,107321,bas_ste_run2_107321,NN,8,1,church,1600,1,804,1,1,627382,636182,636986,46975,38,580.407,589.207,590.011,28.415,256.412,484.409,228.026,456.022,684.019
bas,ste,2,107321,bas_ste_run2_107321,NN,5,2,story,2800,1,1609,1,1,639382,648182,649791,46975,39,592.407,601.207,602.816,28.415,256.412,484.409,228.026,456.022,684.019
bas,ste,2,107321,bas_ste_run2_107321,NP,5,3,yard,2800,1,847,2,2,652582,661382,662229,46975,40,605.607,614.407,615.254,28.415,256.412,484.409,228.026,456.022,684.019
bas,ste,2,107321,bas_ste_run2_107321,RN,5,1,owner,1600,0,0,,1,665782,674582,0,46975,41,618.807,627.607,-46.975,28.415,256.412,484.409,228.026,456.022,684.019
bas,ste,2,107321,bas_ste_run2_107321,NP,5,3,honey,2800,1,841,2,2,677781,686581,687422,46975,42,630.806,639.606,640.447,28.415,256.412,484.409,228.026,456.022,684.019
bas,ste,2,107321,bas_ste_run2_107321,NN,6,1,cows,4000,1,886,1,1,690981,699781,700667,46975,43,644.006,652.806,653.692,28.415,256.412,484.409,228.026,456.022,684.019
bas,ste,2,107321,bas_ste_run2_107321,NP,8,3,pilot,2800,1,1633,2,2,705381,714181,715814,46975,44,658.406,667.206,668.839,28.415,256.412,484.409,228.026,456.022,684.019
bas,ste,2,107321,bas_ste_run2_107321,NN,5,2,train,2800,1,1107,1,1,718581,727381,728488,46975,45,671.606,680.406,681.513,28.415,256.412,484.409,228.026,456.022,684.019
bas,ste,1,115825,bas_ste_run1_115825,NP,5,3,syrup,4000,1,977,2,2,139071,147869,148846,108253,1,30.818,39.616,40.593,28.418,256.432,484.429,228.036,456.033,684.031
bas,ste,1,115825,bas_ste_run1_115825,NN,8,2,scale,2800,1,970,1,1,153468,162267,163237,108253,2,45.215,54.014,54.984,28.418,256.432,484.429,228.036,456.033,684.031
bas,ste,1,115825,bas_ste_run1_115825,NN,8,2,doll,2800,1,958,1,1,166683,175481,176439,108253,3,58.43,67.228,68.186,28.418,256.432,484.429,228.036,456.033,684.031
bas,ste,1,115825,bas_ste_run1_115825,NP,5,3,threat,1600,1,775,2,2,179881,188679,189454,108253,4,71.628,80.426,81.201,28.418,256.432,484.429,228.036,456.033,684.031
bas,ste,1,115825,bas_ste_run1_115825,NN,6,1,parrot,1600,1,1033,1,1,191879,200677,201710,108253,5,83.626,92.424,93.457,28.418,256.432,484.429,228.036,456.033,684.031
bas,ste,1,115825,bas_ste_run1_115825,NP,8,2,chance,4000,1,1060,2,2,203877,212676,213736,108253,6,95.624,104.423,105.483,28.418,256.432,484.429,228.036,456.033,684.031
bas,ste,1,115825,bas_ste_run1_115825,NN,5,2,blur,4000,0,1749,2,1,218275,227073,228822,108253,7,110.022,118.82,120.569,28.418,256.432,484.429,228.036,456.033,684.031
bas,ste,1,115825,bas_ste_run1_115825,NP,7,2,rash,1600,1,787,2,2,232672,241471,242258,108253,8,124.419,133.218,134.005,28.418,256.432,484.429,228.036,456.033,684.031
bas,ste,1,115825,bas_ste_run1_115825,NN,5,2,tube,4000,1,1124,1,1,244670,253469,254593,108253,9,136.417,145.216,146.34,28.418,256.432,484.429,228.036,456.033,684.031
bas,ste,1,115825,bas_ste_run1_115825,NP,5,3,share,1600,1,827,2,2,259068,267867,268694,108253,10,150.815,159.614,160.441,28.418,256.432,484.429,228.036,456.033,684.031
bas,ste,1,115825,bas_ste_run1_115825,NP,7,2,wealth,4000,1,763,2,2,271083,279882,280645,108253,11,162.83,171.629,172.392,28.418,256.432,484.429,228.036,456.033,684.031
bas,ste,1,115825,bas_ste_run1_115825,NP,8,2,bush,2800,1,806,2,2,285481,294279,295085,108253,12,177.228,186.026,186.832,28.418,256.432,484.429,228.036,456.033,684.031
bas,ste,1,115825,bas_ste_run1_115825,NN,7,1,straw,2800,1,1181,1,1,298679,307477,308658,108253,13,190.426,199.224,200.405,28.418,256.432,484.429,228.036,456.033,684.031
bas,ste,1,115825,bas_ste_run1_115825,NP,6,1,frost,2800,1,661,2,2,311876,320675,321336,108253,14,203.623,212.422,213.083,28.418,256.432,484.429,228.036,456.033,684.031
bas,ste,1,115825,bas_ste_run1_115825,RN,5,1,quart,1600,0,807,2,1,325074,333873,334680,108253,15,216.821,225.62,226.427,28.418,256.432,484.429,228.036,456.033,684.031
bas,ste,1,115825,bas_ste_run1_115825,NN,6,1,taxi,2800,1,593,1,1,367068,375883,376476,108253,16,258.815,267.63,268.223,28.418,256.432,484.429,228.036,456.033,684.031
bas,ste,1,115825,bas_ste_run1_115825,NN,8,2,liar,2800,1,883,1,1,380282,389081,389964,108253,17,272.029,280.828,281.711,28.418,256.432,484.429,228.036,456.033,684.031
bas,ste,1,115825,bas_ste_run1_115825,NP,7,2,need,2800,0,840,1,2,393480,402279,403119,108253,18,285.227,294.026,294.866,28.418,256.432,484.429,228.036,456.033,684.031
bas,ste,1,115825,bas_ste_run1_115825,NP,7,2,bean,4000,1,1088,2,2,406678,415477,416565,108253,19,298.425,307.224,308.312,28.418,256.432,484.429,228.036,456.033,684.031
bas,ste,1,115825,bas_ste_run1_115825,NP,8,3,bees,2800,1,845,2,2,421076,429874,430719,108253,20,312.823,321.621,322.466,28.418,256.432,484.429,228.036,456.033,684.031
bas,ste,1,115825,bas_ste_run1_115825,NP,5,3,visit,1600,1,933,2,2,434274,443072,444005,108253,21,326.021,334.819,335.752,28.418,256.432,484.429,228.036,456.033,684.031
bas,ste,1,115825,bas_ste_run1_115825,NN,7,1,logic,1600,1,789,1,1,446272,455070,455859,108253,22,338.019,346.817,347.606,28.418,256.432,484.429,228.036,456.033,684.031
bas,ste,1,115825,bas_ste_run1_115825,NP,5,3,people,1600,1,1206,2,2,458270,467069,468275,108253,23,350.017,358.816,360.022,28.418,256.432,484.429,228.036,456.033,684.031
bas,ste,1,115825,bas_ste_run1_115825,NN,8,2,heater,4000,1,1067,1,1,470268,479083,480150,108253,24,362.015,370.83,371.897,28.418,256.432,484.429,228.036,456.033,684.031
bas,ste,1,115825,bas_ste_run1_115825,RN,5,1,noise,1600,0,925,2,1,484682,493481,494406,108253,25,376.429,385.228,386.153,28.418,256.432,484.429,228.036,456.033,684.031
bas,ste,1,115825,bas_ste_run1_115825,NN,5,2,pole,2800,1,718,1,1,496681,505479,506197,108253,26,388.428,397.226,397.944,28.418,256.432,484.429,228.036,456.033,684.031
bas,ste,1,115825,bas_ste_run1_115825,NP,8,3,city,1600,1,1385,2,2,509878,518677,520062,108253,27,401.625,410.424,411.809,28.418,256.432,484.429,228.036,456.033,684.031
bas,ste,1,115825,bas_ste_run1_115825,NP,8,3,carpet,4000,1,620,2,2,521877,530675,531295,108253,28,413.624,422.422,423.042,28.418,256.432,484.429,228.036,456.033,684.031
bas,ste,1,115825,bas_ste_run1_115825,NP,5,3,tags,4000,1,876,2,2,536274,545073,545949,108253,29,428.021,436.82,437.696,28.418,256.432,484.429,228.036,456.033,684.031
bas,ste,1,115825,bas_ste_run1_115825,NN,5,2,greed,4000,1,817,1,1,550672,559471,560288,108253,30,442.419,451.218,452.035,28.418,256.432,484.429,228.036,456.033,684.031
bas,ste,1,115825,bas_ste_run1_115825,NN,5,2,pans,4000,1,803,1,1,595082,603880,604683,108253,31,486.829,495.627,496.43,28.418,256.432,484.429,228.036,456.033,684.031
bas,ste,1,115825,bas_ste_run1_115825,NP,5,3,muscle,1600,0,0,,2,609479,618278,0,108253,32,501.226,510.025,-108.253,28.418,256.432,484.429,228.036,456.033,684.031
bas,ste,1,115825,bas_ste_run1_115825,NP,8,2,bugs,2800,0,778,1,2,621477,630276,631054,108253,33,513.224,522.023,522.801,28.418,256.432,484.429,228.036,456.033,684.031
bas,ste,1,115825,bas_ste_run1_115825,RN,5,1,fusion,1600,1,663,1,1,634675,643474,644137,108253,34,526.422,535.221,535.884,28.418,256.432,484.429,228.036,456.033,684.031
bas,ste,1,115825,bas_ste_run1_115825,NN,8,2,shell,4000,1,786,1,1,646673,655472,656258,108253,35,538.42,547.219,548.005,28.418,256.432,484.429,228.036,456.033,684.031
bas,ste,1,115825,bas_ste_run1_115825,NP,7,1,clue,2800,1,860,2,2,661071,669870,670730,108253,36,552.818,561.617,562.477,28.418,256.432,484.429,228.036,456.033,684.031
bas,ste,1,115825,bas_ste_run1_115825,NP,8,2,wife,1600,1,1267,2,2,674269,683068,684335,108253,37,566.016,574.815,576.082,28.418,256.432,484.429,228.036,456.033,684.031
bas,ste,1,115825,bas_ste_run1_115825,NN,5,2,gift,1600,1,734,1,1,686267,695082,695816,108253,38,578.014,586.829,587.563,28.418,256.432,484.429,228.036,456.033,684.031
bas,ste,1,115825,bas_ste_run1_115825,NP,6,1,food,1600,1,1135,2,2,698282,707080,708215,108253,39,590.029,598.827,599.962,28.418,256.432,484.429,228.036,456.033,684.031
bas,ste,1,115825,bas_ste_run1_115825,RN,8,1,ground,2800,1,839,1,1,710280,719079,719918,108253,40,602.027,610.826,611.665,28.418,256.432,484.429,228.036,456.033,684.031
bas,ste,1,115825,bas_ste_run1_115825,NP,5,3,marker,4000,1,777,2,2,723478,732277,733054,108253,41,615.225,624.024,624.801,28.418,256.432,484.429,228.036,456.033,684.031
bas,ste,1,115825,bas_ste_run1_115825,NN,8,2,signal,2800,1,1035,1,1,737876,746674,747709,108253,42,629.623,638.421,639.456,28.418,256.432,484.429,228.036,456.033,684.031
bas,ste,1,115825,bas_ste_run1_115825,NP,5,3,curve,2800,0,1762,1,2,751074,759872,761634,108253,43,642.821,651.619,653.381,28.418,256.432,484.429,228.036,456.033,684.031
bas,ste,1,115825,bas_ste_run1_115825,NN,7,2,pledge,4000,1,708,1,1,764271,773070,773778,108253,44,656.018,664.817,665.525,28.418,256.432,484.429,228.036,456.033,684.031
bas,ste,1,115825,bas_ste_run1_115825,NN,7,2,berry,4000,1,727,1,1,778669,787468,788195,108253,45,670.416,679.215,679.942,28.418,256.432,484.429,228.036,456.033,684.031
bas,ste,2,115825,bas_ste_run2_115825,NP,5,3,north,4000,1,827,2,2,75779,84578,85405,44967,1,30.812,39.611,40.438,28.412,256.41,484.423,228.031,456.028,684.025
bas,ste,2,115825,bas_ste_run2_115825,NP,5,3,ransom,2800,1,779,2,2,90177,98975,99754,44967,2,45.21,54.008,54.787,28.412,256.41,484.423,228.031,456.028,684.025
bas,ste,2,115825,bas_ste_run2_115825,NN,5,2,chin,2800,1,855,1,1,103375,112190,113045,44967,3,58.408,67.223,68.078,28.412,256.41,484.423,228.031,456.028,684.025
bas,ste,2,115825,bas_ste_run2_115825,NN,6,1,whale,2800,1,1029,1,1,116589,125388,126417,44967,4,71.622,80.421,81.45,28.412,256.41,484.423,228.031,456.028,684.025
bas,ste,2,115825,bas_ste_run2_115825,NN,8,2,cotton,1600,1,1046,1,1,129787,138586,139632,44967,5,84.82,93.619,94.665,28.412,256.41,484.423,228.031,456.028,684.025
bas,ste,2,115825,bas_ste_run2_115825,NP,5,3,wheel,1600,1,715,2,2,141785,150584,151299,44967,6,96.818,105.617,106.332,28.412,256.41,484.423,228.031,456.028,684.025
bas,ste,2,115825,bas_ste_run2_115825,RN,5,1,cabin,4000,0,762,2,1,153783,162582,163344,44967,7,108.816,117.615,118.377,28.412,256.41,484.423,228.031,456.028,684.025
bas,ste,2,115825,bas_ste_run2_115825,NN,5,2,hatch,1600,1,1032,1,1,168181,176980,178012,44967,8,123.214,132.013,133.045,28.412,256.41,484.423,228.031,456.028,684.025
bas,ste,2,115825,bas_ste_run2_115825,NN,7,1,flame,2800,1,899,1,1,180179,188978,189877,44967,9,135.212,144.011,144.91,28.412,256.41,484.423,228.031,456.028,684.025
bas,ste,2,115825,bas_ste_run2_115825,NP,6,1,dollar,1600,0,1404,1,2,193377,202176,203580,44967,10,148.41,157.209,158.613,28.412,256.41,484.423,228.031,456.028,684.025
bas,ste,2,115825,bas_ste_run2_115825,NP,8,2,exam,1600,1,596,2,2,205375,214174,214770,44967,11,160.408,169.207,169.803,28.412,256.41,484.423,228.031,456.028,684.025
bas,ste,2,115825,bas_ste_run2_115825,NN,8,2,lesson,2800,1,697,1,1,217390,226189,226886,44967,12,172.423,181.222,181.919,28.412,256.41,484.423,228.031,456.028,684.025
bas,ste,2,115825,bas_ste_run2_115825,NP,7,1,teeth,4000,1,723,2,2,230588,239386,240109,44967,13,185.621,194.419,195.142,28.412,256.41,484.423,228.031,456.028,684.025
bas,ste,2,115825,bas_ste_run2_115825,NP,8,2,kids,4000,1,1331,2,2,244986,253784,255115,44967,14,200.019,208.817,210.148,28.412,256.41,484.423,228.031,456.028,684.025
bas,ste,2,115825,bas_ste_run2_115825,RN,7,1,jars,4000,1,783,1,1,259383,268182,268965,44967,15,214.416,223.215,223.998,28.412,256.41,484.423,228.031,456.028,684.025
bas,ste,2,115825,bas_ste_run2_115825,NP,5,3,harp,1600,1,745,2,2,303776,312575,313320,44967,16,258.809,267.608,268.353,28.412,256.41,484.423,228.031,456.028,684.025
bas,ste,2,115825,bas_ste_run2_115825,NN,8,2,sled,1600,1,901,1,1,315774,324590,325491,44967,17,270.807,279.623,280.524,28.412,256.41,484.423,228.031,456.028,684.025
bas,ste,2,115825,bas_ste_run2_115825,RN,8,1,house,1600,0,0,,1,327789,336588,0,44967,18,282.822,291.621,-44.967,28.412,256.41,484.423,228.031,456.028,684.025
bas,ste,2,115825,bas_ste_run2_115825,NP,5,3,store,4000,0,589,1,2,339787,348586,349175,44967,19,294.82,303.619,304.208,28.412,256.41,484.423,228.031,456.028,684.025
bas,ste,2,115825,bas_ste_run2_115825,RN,5,1,soil,4000,0,951,2,1,354185,362984,363935,44967,20,309.218,318.017,318.968,28.412,256.41,484.423,228.031,456.028,684.025
bas,ste,2,115825,bas_ste_run2_115825,NN,6,1,zebra,2800,1,659,1,1,368583,377381,378040,44967,21,323.616,332.414,333.073,28.412,256.41,484.423,228.031,456.028,684.025
bas,ste,2,115825,bas_ste_run2_115825,NP,8,2,action,2800,1,775,2,2,381781,390579,391354,44967,22,336.814,345.612,346.387,28.412,256.41,484.423,228.031,456.028,684.025
bas,ste,2,115825,bas_ste_run2_115825,NN,7,1,poison,2800,1,1131,1,1,394978,403777,404908,44967,23,350.011,358.81,359.941,28.412,256.41,484.423,228.031,456.028,684.025
bas,ste,2,115825,bas_ste_run2_115825,NN,5,2,heaven,1600,1,544,1,1,408176,416975,417519,44967,24,363.209,372.008,372.552,28.412,256.41,484.423,228.031,456.028,684.025
bas,ste,2,115825,bas_ste_run2_115825,NP,8,2,text,4000,1,701,2,2,420174,428990,429691,44967,25,375.207,384.023,384.724,28.412,256.41,484.423,228.031,456.028,684.025
bas,ste,2,115825,bas_ste_run2_115825,NP,5,3,others,1600,1,990,2,2,434589,443387,444377,44967,26,389.622,398.42,399.41,28.412,256.41,484.423,228.031,456.028,684.025
bas,ste,2,115825,bas_ste_run2_115825,NP,7,2,crime,2800,1,853,2,2,446587,455386,456239,44967,27,401.62,410.419,411.272,28.412,256.41,484.423,228.031,456.028,684.025
bas,ste,2,115825,bas_ste_run2_115825,NN,5,2,barber,4000,1,760,1,1,459785,468583,469343,44967,28,414.818,423.616,424.376,28.412,256.41,484.423,228.031,456.028,684.025
bas,ste,2,115825,bas_ste_run2_115825,NN,8,2,steel,2800,1,912,1,1,474183,482981,483893,44967,29,429.216,438.014,438.926,28.412,256.41,484.423,228.031,456.028,684.025
bas,ste,2,115825,bas_ste_run2_115825,NP,7,2,cherry,4000,1,831,2,2,487380,496179,497010,44967,30,442.413,451.212,452.043,28.412,256.41,484.423,228.031,456.028,684.025
bas,ste,2,115825,bas_ste_run2_115825,NN,7,2,book,4000,1,936,1,1,531790,540589,541525,44967,31,486.823,495.622,496.558,28.412,256.41,484.423,228.031,456.028,684.025
bas,ste,2,115825,bas_ste_run2_115825,NP,7,1,photo,1600,0,975,1,2,546188,554986,555961,44967,32,501.221,510.019,510.994,28.412,256.41,484.423,228.031,456.028,684.025
bas,ste,2,115825,bas_ste_run2_115825,NP,6,1,profit,4000,1,899,2,2,558186,566985,567884,44967,33,513.219,522.018,522.917,28.412,256.41,484.423,228.031,456.028,684.025
bas,ste,2,115825,bas_ste_run2_115825,NN,7,2,word,2800,1,1145,1,1,572584,581382,582527,44967,34,527.617,536.415,537.56,28.412,256.41,484.423,228.031,456.028,684.025
bas,ste,2,115825,bas_ste_run2_115825,NP,8,3,paper,2800,1,809,2,2,585782,594580,595389,44967,35,540.815,549.613,550.422,28.412,256.41,484.423,228.031,456.028,684.025
bas,ste,2,115825,bas_ste_run2_115825,NP,8,3,pony,1600,0,1054,1,2,598979,607778,608832,44967,36,554.012,562.811,563.865,28.412,256.41,484.423,228.031,456.028,684.025
bas,ste,2,115825,bas_ste_run2_115825,NP,5,3,fluid,4000,1,678,2,2,610978,619776,620454,44967,37,566.011,574.809,575.487,28.412,256.41,484.423,228.031,456.028,684.025
bas,ste,2,115825,bas_ste_run2_115825,NN,8,1,church,4000,1,1231,1,1,625375,634174,635405,44967,38,580.408,589.207,590.438,28.412,256.41,484.423,228.031,456.028,684.025
bas,ste,2,115825,bas_ste_run2_115825,NN,5,2,story,4000,1,876,1,1,639790,648588,649464,44967,39,594.823,603.621,604.497,28.412,256.41,484.423,228.031,456.028,684.025
bas,ste,2,115825,bas_ste_run2_115825,NP,5,3,yard,1600,1,1114,2,2,654187,662986,664100,44967,40,609.22,618.019,619.133,28.412,256.41,484.423,228.031,456.028,684.025
bas,ste,2,115825,bas_ste_run2_115825,RN,5,1,owner,2800,1,867,1,1,666185,674984,675851,44967,41,621.218,630.017,630.884,28.412,256.41,484.423,228.031,456.028,684.025
bas,ste,2,115825,bas_ste_run2_115825,NP,5,3,honey,1600,0,0,,2,679383,688182,0,44967,42,634.416,643.215,-44.967,28.412,256.41,484.423,228.031,456.028,684.025
bas,ste,2,115825,bas_ste_run2_115825,NN,6,1,cows,2800,1,987,1,1,691381,700180,701167,44967,43,646.414,655.213,656.2,28.412,256.41,484.423,228.031,456.028,684.025
bas,ste,2,115825,bas_ste_run2_115825,NP,8,3,pilot,1600,1,747,2,2,704579,713378,714125,44967,44,659.612,668.411,669.158,28.412,256.41,484.423,228.031,456.028,684.025
bas,ste,2,115825,bas_ste_run2_115825,NN,5,2,train,2800,1,610,1,1,716577,725376,725986,44967,45,671.61,680.409,681.019,28.412,256.41,484.423,228.031,456.028,684.025
bas,ste,1,123117,bas_ste_run1_123117,NP,5,3,syrup,2800,1,1516,2,2,162627,171426,172942,131815,1,30.812,39.611,41.127,28.413,256.41,484.407,228.014,456.028,684.025
bas,ste,1,123117,bas_ste_run1_123117,NN,8,2,scale,1600,1,1044,1,1,175825,184624,185668,131815,2,44.01,52.809,53.853,28.413,256.41,484.407,228.014,456.028,684.025
bas,ste,1,123117,bas_ste_run1_123117,NN,8,2,doll,2800,1,932,1,1,187823,196622,197554,131815,3,56.008,64.807,65.739,28.413,256.41,484.407,228.014,456.028,684.025
bas,ste,1,123117,bas_ste_run1_123117,NP,5,3,threat,2800,0,720,1,2,201021,209820,210540,131815,4,69.206,78.005,78.725,28.413,256.41,484.407,228.014,456.028,684.025
bas,ste,1,123117,bas_ste_run1_123117,NN,6,1,parrot,1600,1,696,1,1,214219,223034,223730,131815,5,82.404,91.219,91.915,28.413,256.41,484.407,228.014,456.028,684.025
bas,ste,1,123117,bas_ste_run1_123117,NP,8,2,chance,1600,0,1060,1,2,226234,235032,236092,131815,6,94.419,103.217,104.277,28.413,256.41,484.407,228.014,456.028,684.025
bas,ste,1,123117,bas_ste_run1_123117,NN,5,2,blur,2800,1,1143,1,1,238232,247030,248173,131815,7,106.417,115.215,116.358,28.413,256.41,484.407,228.014,456.028,684.025
bas,ste,1,123117,bas_ste_run1_123117,NP,7,2,rash,4000,0,659,1,2,251430,260228,260887,131815,8,119.615,128.413,129.072,28.413,256.41,484.407,228.014,456.028,684.025
bas,ste,1,123117,bas_ste_run1_123117,NN,5,2,tube,4000,1,872,1,1,265828,274626,275498,131815,9,134.013,142.811,143.683,28.413,256.41,484.407,228.014,456.028,684.025
bas,ste,1,123117,bas_ste_run1_123117,NP,5,3,share,1600,0,1504,1,2,280225,289024,290528,131815,10,148.41,157.209,158.713,28.413,256.41,484.407,228.014,456.028,684.025
bas,ste,1,123117,bas_ste_run1_123117,NP,7,2,wealth,4000,0,1064,1,2,292223,301022,302086,131815,11,160.408,169.207,170.271,28.413,256.41,484.407,228.014,456.028,684.025
bas,ste,1,123117,bas_ste_run1_123117,NP,8,2,bush,4000,1,771,2,2,306621,315420,316191,131815,12,174.806,183.605,184.376,28.413,256.41,484.407,228.014,456.028,684.025
bas,ste,1,123117,bas_ste_run1_123117,NN,7,1,straw,2800,1,1665,1,1,321019,329834,331499,131815,13,189.204,198.019,199.684,28.413,256.41,484.407,228.014,456.028,684.025
bas,ste,1,123117,bas_ste_run1_123117,NP,6,1,frost,4000,1,1428,2,2,334233,343032,344460,131815,14,202.418,211.217,212.645,28.413,256.41,484.407,228.014,456.028,684.025
bas,ste,1,123117,bas_ste_run1_123117,RN,5,1,quart,1600,1,884,1,1,348631,357430,358314,131815,15,216.816,225.615,226.499,28.413,256.41,484.407,228.014,456.028,684.025
bas,ste,1,123117,bas_ste_run1_123117,NN,6,1,taxi,1600,1,847,1,1,390624,399423,400270,131815,16,258.809,267.608,268.455,28.413,256.41,484.407,228.014,456.028,684.025
bas,ste,1,123117,bas_ste_run1_123117,NN,8,2,liar,1600,1,959,1,1,402622,411421,412380,131815,17,270.807,279.606,280.565,28.413,256.41,484.407,228.014,456.028,684.025
bas,ste,1,123117,bas_ste_run1_123117,NP,7,2,need,4000,0,695,1,2,414621,423419,424114,131815,18,282.806,291.604,292.299,28.413,256.41,484.407,228.014,456.028,684.025
bas,ste,1,123117,bas_ste_run1_123117,NP,7,2,bean,2800,0,364,1,2,429035,437834,438198,131815,19,297.22,306.019,306.383,28.413,256.41,484.407,228.014,456.028,684.025
bas,ste,1,123117,bas_ste_run1_123117,NP,8,3,bees,4000,0,1100,1,2,442233,451032,452132,131815,20,310.418,319.217,320.317,28.413,256.41,484.407,228.014,456.028,684.025
bas,ste,1,123117,bas_ste_run1_123117,NP,5,3,visit,2800,1,1049,2,2,456631,465429,466478,131815,21,324.816,333.614,334.663,28.413,256.41,484.407,228.014,456.028,684.025
bas,ste,1,123117,bas_ste_run1_123117,NN,7,1,logic,1600,1,719,1,1,469829,478627,479346,131815,22,338.014,346.812,347.531,28.413,256.41,484.407,228.014,456.028,684.025
bas,ste,1,123117,bas_ste_run1_123117,NP,5,3,people,2800,0,666,1,2,481827,490625,491291,131815,23,350.012,358.81,359.476,28.413,256.41,484.407,228.014,456.028,684.025
bas,ste,1,123117,bas_ste_run1_123117,NN,8,2,heater,1600,1,1218,1,1,495025,503823,505041,131815,24,363.21,372.008,373.226,28.413,256.41,484.407,228.014,456.028,684.025
bas,ste,1,123117,bas_ste_run1_123117,RN,5,1,noise,4000,1,855,1,1,507023,515821,516676,131815,25,375.208,384.006,384.861,28.413,256.41,484.407,228.014,456.028,684.025
bas,ste,1,123117,bas_ste_run1_123117,NN,5,2,pole,4000,0,0,,1,521420,530219,0,131815,26,389.605,398.404,-131.815,28.413,256.41,484.407,228.014,456.028,684.025
bas,ste,1,123117,bas_ste_run1_123117,NP,8,3,city,4000,0,672,1,2,535835,544633,545305,131815,27,404.02,412.818,413.49,28.413,256.41,484.407,228.014,456.028,684.025
bas,ste,1,123117,bas_ste_run1_123117,NP,8,3,carpet,2800,0,1444,1,2,550232,559031,560475,131815,28,418.417,427.216,428.66,28.413,256.41,484.407,228.014,456.028,684.025
bas,ste,1,123117,bas_ste_run1_123117,NP,5,3,tags,2800,1,537,2,2,563430,572229,572766,131815,29,431.615,440.414,440.951,28.413,256.41,484.407,228.014,456.028,684.025
bas,ste,1,123117,bas_ste_run1_123117,NN,5,2,greed,1600,1,1178,1,1,576628,585427,586605,131815,30,444.813,453.612,454.79,28.413,256.41,484.407,228.014,456.028,684.025
bas,ste,1,123117,bas_ste_run1_123117,NN,5,2,pans,2800,1,1898,1,1,618622,627420,629318,131815,31,486.807,495.605,497.503,28.413,256.41,484.407,228.014,456.028,684.025
bas,ste,1,123117,bas_ste_run1_123117,NP,5,3,muscle,4000,0,1956,1,2,631819,640635,642591,131815,32,500.004,508.82,510.776,28.413,256.41,484.407,228.014,456.028,684.025
bas,ste,1,123117,bas_ste_run1_123117,NP,8,2,bugs,1600,0,1196,1,2,646234,655032,656228,131815,33,514.419,523.217,524.413,28.413,256.41,484.407,228.014,456.028,684.025
bas,ste,1,123117,bas_ste_run1_123117,RN,5,1,fusion,4000,1,1156,1,1,658232,667031,668187,131815,34,526.417,535.216,536.372,28.413,256.41,484.407,228.014,456.028,684.025
bas,ste,1,123117,bas_ste_run1_123117,NN,8,2,shell,2800,1,1025,1,1,672630,681428,682453,131815,35,540.815,549.613,550.638,28.413,256.41,484.407,228.014,456.028,684.025
bas,ste,1,123117,bas_ste_run1_123117,NP,7,1,clue,4000,1,1488,2,2,685828,694626,696114,131815,36,554.013,562.811,564.299,28.413,256.41,484.407,228.014,456.028,684.025
bas,ste,1,123117,bas_ste_run1_123117,NP,8,2,wife,1600,0,1387,1,2,700225,709024,710411,131815,37,568.41,577.209,578.596,28.413,256.41,484.407,228.014,456.028,684.025
bas,ste,1,123117,bas_ste_run1_123117,NN,5,2,gift,2800,1,1020,1,1,712223,721022,722042,131815,38,580.408,589.207,590.227,28.413,256.41,484.407,228.014,456.028,684.025
bas,ste,1,123117,bas_ste_run1_123117,NP,6,1,food,4000,0,1274,1,2,725421,734220,735494,131815,39,593.606,602.405,603.679,28.413,256.41,484.407,228.014,456.028,684.025
bas,ste,1,123117,bas_ste_run1_123117,RN,8,1,ground,1600,1,1570,1,1,739819,748634,750204,131815,40,608.004,616.819,618.389,28.413,256.41,484.407,228.014,456.028,684.025
bas,ste,1,123117,bas_ste_run1_123117,NP,5,3,marker,1600,0,1284,1,2,751834,760632,761916,131815,41,620.019,628.817,630.101,28.413,256.41,484.407,228.014,456.028,684.025
bas,ste,1,123117,bas_ste_run1_123117,NN,8,2,signal,1600,1,825,1,1,763832,772631,773456,131815,42,632.017,640.816,641.641,28.413,256.41,484.407,228.014,456.028,684.025
bas,ste,1,123117,bas_ste_run1_123117,NP,5,3,curve,4000,0,1223,1,2,775830,784629,785852,131815,43,644.015,652.814,654.037,28.413,256.41,484.407,228.014,456.028,684.025
bas,ste,1,123117,bas_ste_run1_123117,NN,7,2,pledge,2800,1,977,1,1,790228,799026,800003,131815,44,658.413,667.211,668.188,28.413,256.41,484.407,228.014,456.028,684.025
bas,ste,1,123117,bas_ste_run1_123117,NN,7,2,berry,2800,1,995,1,1,803426,812224,813219,131815,45,671.611,680.409,681.404,28.413,256.41,484.407,228.014,456.028,684.025
bas,ste,2,123117,bas_ste_run2_123117,NP,5,3,north,1600,1,1202,2,2,92673,101472,102674,61866,1,30.807,39.606,40.808,28.408,256.405,484.419,228.01,456.023,684.021
bas,ste,2,123117,bas_ste_run2_123117,NP,5,3,ransom,4000,1,877,2,2,104672,113470,114347,61866,2,42.806,51.604,52.481,28.408,256.405,484.419,228.01,456.023,684.021
bas,ste,2,123117,bas_ste_run2_123117,NN,5,2,chin,4000,1,703,1,1,119069,127868,128571,61866,3,57.203,66.002,66.705,28.408,256.405,484.419,228.01,456.023,684.021
bas,ste,2,123117,bas_ste_run2_123117,NN,6,1,whale,1600,1,834,1,1,133467,142282,143116,61866,4,71.601,80.416,81.25,28.408,256.405,484.419,228.01,456.023,684.021
bas,ste,2,123117,bas_ste_run2_123117,NN,8,2,cotton,4000,1,634,1,1,145482,154280,154914,61866,5,83.616,92.414,93.048,28.408,256.405,484.419,228.01,456.023,684.021
bas,ste,2,123117,bas_ste_run2_123117,NP,5,3,wheel,4000,1,1415,2,2,159879,168678,170093,61866,6,98.013,106.812,108.227,28.408,256.405,484.419,228.01,456.023,684.021
bas,ste,2,123117,bas_ste_run2_123117,RN,5,1,cabin,2800,0,1011,2,1,174277,183076,184087,61866,7,112.411,121.21,122.221,28.408,256.405,484.419,228.01,456.023,684.021
bas,ste,2,123117,bas_ste_run2_123117,NN,5,2,hatch,1600,1,683,1,1,187475,196274,196957,61866,8,125.609,134.408,135.091,28.408,256.405,484.419,228.01,456.023,684.021
bas,ste,2,123117,bas_ste_run2_123117,NN,7,1,flame,2800,1,689,1,1,199473,208272,208961,61866,9,137.607,146.406,147.095,28.408,256.405,484.419,228.01,456.023,684.021
bas,ste,2,123117,bas_ste_run2_123117,NP,6,1,dollar,2800,1,954,2,2,212671,221470,222424,61866,10,150.805,159.604,160.558,28.408,256.405,484.419,228.01,456.023,684.021
bas,ste,2,123117,bas_ste_run2_123117,NP,8,2,exam,4000,1,980,2,2,225869,234668,235648,61866,11,164.003,172.802,173.782,28.408,256.405,484.419,228.01,456.023,684.021
bas,ste,2,123117,bas_ste_run2_123117,NN,8,2,lesson,2800,1,1218,1,1,240267,249082,250300,61866,12,178.401,187.216,188.434,28.408,256.405,484.419,228.01,456.023,684.021
bas,ste,2,123117,bas_ste_run2_123117,NP,7,1,teeth,1600,1,1660,2,2,253481,262280,263940,61866,13,191.615,200.414,202.074,28.408,256.405,484.419,228.01,456.023,684.021
bas,ste,2,123117,bas_ste_run2_123117,NP,8,2,kids,1600,0,752,1,2,265479,274278,275030,61866,14,203.613,212.412,213.164,28.408,256.405,484.419,228.01,456.023,684.021
bas,ste,2,123117,bas_ste_run2_123117,RN,7,1,jars,2800,1,943,1,1,277477,286276,287219,61866,15,215.611,224.41,225.353,28.408,256.405,484.419,228.01,456.023,684.021
bas,ste,2,123117,bas_ste_run2_123117,NP,5,3,harp,1600,1,988,2,2,320671,329469,330457,61866,16,258.805,267.603,268.591,28.408,256.405,484.419,228.01,456.023,684.021
bas,ste,2,123117,bas_ste_run2_123117,NN,8,2,sled,2800,1,936,1,1,332669,341467,342403,61866,17,270.803,279.601,280.537,28.408,256.405,484.419,228.01,456.023,684.021
bas,ste,2,123117,bas_ste_run2_123117,RN,8,1,house,2800,1,839,1,1,345867,354682,355521,61866,18,284.001,292.816,293.655,28.408,256.405,484.419,228.01,456.023,684.021
bas,ste,2,123117,bas_ste_run2_123117,NP,5,3,store,1600,0,1224,1,2,359081,367880,369104,61866,19,297.215,306.014,307.238,28.408,256.405,484.419,228.01,456.023,684.021
bas,ste,2,123117,bas_ste_run2_123117,RN,5,1,soil,2800,1,414,1,1,371079,379878,380292,61866,20,309.213,318.012,318.426,28.408,256.405,484.419,228.01,456.023,684.021
bas,ste,2,123117,bas_ste_run2_123117,NN,6,1,zebra,2800,1,683,1,1,384277,393076,393759,61866,21,322.411,331.21,331.893,28.408,256.405,484.419,228.01,456.023,684.021
bas,ste,2,123117,bas_ste_run2_123117,NP,8,2,action,4000,1,1508,2,2,397475,406274,407782,61866,22,335.609,344.408,345.916,28.408,256.405,484.419,228.01,456.023,684.021
bas,ste,2,123117,bas_ste_run2_123117,NN,7,1,poison,4000,1,1194,1,1,411873,420671,421865,61866,23,350.007,358.805,359.999,28.408,256.405,484.419,228.01,456.023,684.021
bas,ste,2,123117,bas_ste_run2_123117,NN,5,2,heaven,1600,1,1364,1,1,426271,435069,436433,61866,24,364.405,373.203,374.567,28.408,256.405,484.419,228.01,456.023,684.021
bas,ste,2,123117,bas_ste_run2_123117,NP,8,2,text,1600,0,757,1,2,438269,447067,447824,61866,25,376.403,385.201,385.958,28.408,256.405,484.419,228.01,456.023,684.021
bas,ste,2,123117,bas_ste_run2_123117,NP,5,3,others,4000,1,1166,2,2,450267,459082,460248,61866,26,388.401,397.216,398.382,28.408,256.405,484.419,228.01,456.023,684.021
bas,ste,2,123117,bas_ste_run2_123117,NP,7,2,crime,1600,0,1337,1,2,464681,473480,474817,61866,27,402.815,411.614,412.951,28.408,256.405,484.419,228.01,456.023,684.021
bas,ste,2,123117,bas_ste_run2_123117,NN,5,2,barber,4000,1,856,1,1,476679,485478,486334,61866,28,414.813,423.612,424.468,28.408,256.405,484.419,228.01,456.023,684.021
bas,ste,2,123117,bas_ste_run2_123117,NN,8,2,steel,2800,1,919,1,1,491077,499876,500795,61866,29,429.211,438.01,438.929,28.408,256.405,484.419,228.01,456.023,684.021
bas,ste,2,123117,bas_ste_run2_123117,NP,7,2,cherry,4000,0,0,,2,504275,513073,0,61866,30,442.409,451.207,-61.866,28.408,256.405,484.419,228.01,456.023,684.021
bas,ste,2,123117,bas_ste_run2_123117,NN,7,2,book,1600,1,915,1,1,548668,557483,558398,61866,31,486.802,495.617,496.532,28.408,256.405,484.419,228.01,456.023,684.021
bas,ste,2,123117,bas_ste_run2_123117,NP,7,1,photo,2800,0,0,,2,560683,569481,0,61866,32,498.817,507.615,-61.866,28.408,256.405,484.419,228.01,456.023,684.021
bas,ste,2,123117,bas_ste_run2_123117,NP,6,1,profit,1600,1,1021,2,2,573881,582679,583700,61866,33,512.015,520.813,521.834,28.408,256.405,484.419,228.01,456.023,684.021
bas,ste,2,123117,bas_ste_run2_123117,NN,7,2,word,2800,1,690,1,1,585879,594677,595367,61866,34,524.013,532.811,533.501,28.408,256.405,484.419,228.01,456.023,684.021
bas,ste,2,123117,bas_ste_run2_123117,NP,8,3,paper,2800,1,929,2,2,599077,607875,608804,61866,35,537.211,546.009,546.938,28.408,256.405,484.419,228.01,456.023,684.021
bas,ste,2,123117,bas_ste_run2_123117,NP,8,3,pony,4000,0,844,1,2,612274,621073,621917,61866,36,550.408,559.207,560.051,28.408,256.405,484.419,228.01,456.023,684.021
bas,ste,2,123117,bas_ste_run2_123117,NP,5,3,fluid,2800,1,849,2,2,626672,635471,636320,61866,37,564.806,573.605,574.454,28.408,256.405,484.419,228.01,456.023,684.021
bas,ste,2,123117,bas_ste_run2_123117,NN,8,1,church,4000,1,886,1,1,639870,648669,649555,61866,38,578.004,586.803,587.689,28.408,256.405,484.419,228.01,456.023,684.021
bas,ste,2,123117,bas_ste_run2_123117,NN,5,2,story,4000,1,826,1,1,654268,663083,663909,61866,39,592.402,601.217,602.043,28.408,256.405,484.419,228.01,456.023,684.021
bas,ste,2,123117,bas_ste_run2_123117,NP,5,3,yard,2800,0,283,1,2,668682,677481,677764,61866,40,606.816,615.615,615.898,28.408,256.405,484.419,228.01,456.023,684.021
bas,ste,2,123117,bas_ste_run2_123117,RN,5,1,owner,1600,1,956,1,1,681880,690679,691635,61866,41,620.014,628.813,629.769,28.408,256.405,484.419,228.01,456.023,684.021
bas,ste,2,123117,bas_ste_run2_123117,NP,5,3,honey,1600,0,554,1,2,693878,702677,703231,61866,42,632.012,640.811,641.365,28.408,256.405,484.419,228.01,456.023,684.021
bas,ste,2,123117,bas_ste_run2_123117,NN,6,1,cows,1600,1,721,1,1,705876,714675,715396,61866,43,644.01,652.809,653.53,28.408,256.405,484.419,228.01,456.023,684.021
bas,ste,2,123117,bas_ste_run2_123117,NP,8,3,pilot,4000,0,1070,1,2,717874,726673,727743,61866,44,656.008,664.807,665.877,28.408,256.405,484.419,228.01,456.023,684.021
bas,ste,2,123117,bas_ste_run2_123117,NN,5,2,train,4000,1,1459,1,1,732272,741071,742530,61866,45,670.406,679.205,680.664,28.408,256.405,484.419,228.01,456.023,684.021
bas,ste,1,130114,bas_ste_run1_130114,NP,5,3,syrup,2800,1,1164,2,2,127104,135920,137084,96303,1,30.801,39.617,40.781,28.418,256.416,484.413,228.02,456.017,684.015
bas,ste,1,130114,bas_ste_run1_130114,NN,8,2,scale,4000,1,836,1,1,140319,149118,149954,96303,2,44.016,52.815,53.651,28.418,256.416,484.413,228.02,456.017,684.015
bas,ste,1,130114,bas_ste_run1_130114,NN,8,2,doll,1600,1,958,1,1,154717,163515,164473,96303,3,58.414,67.212,68.17,28.418,256.416,484.413,228.02,456.017,684.015
bas,ste,1,130114,bas_ste_run1_130114,NP,5,3,threat,4000,1,991,2,2,166715,175513,176504,96303,4,70.412,79.21,80.201,28.418,256.416,484.413,228.02,456.017,684.015
bas,ste,1,130114,bas_ste_run1_130114,NN,6,1,parrot,2800,1,670,1,1,181113,189911,190581,96303,5,84.81,93.608,94.278,28.418,256.416,484.413,228.02,456.017,684.015
bas,ste,1,130114,bas_ste_run1_130114,NP,8,2,chance,1600,1,1159,2,2,194310,203109,204268,96303,6,98.007,106.806,107.965,28.418,256.416,484.413,228.02,456.017,684.015
bas,ste,1,130114,bas_ste_run1_130114,NN,5,2,blur,1600,1,868,1,1,206309,215107,215975,96303,7,110.006,118.804,119.672,28.418,256.416,484.413,228.02,456.017,684.015
bas,ste,1,130114,bas_ste_run1_130114,NP,7,2,rash,1600,1,1274,2,2,218307,227105,228379,96303,8,122.004,130.802,132.076,28.418,256.416,484.413,228.02,456.017,684.015
bas,ste,1,130114,bas_ste_run1_130114,NN,5,2,tube,2800,1,1129,1,1,230305,239120,240249,96303,9,134.002,142.817,143.946,28.418,256.416,484.413,228.02,456.017,684.015
bas,ste,1,130114,bas_ste_run1_130114,NP,5,3,share,4000,1,1697,2,2,243519,252318,254015,96303,10,147.216,156.015,157.712,28.418,256.416,484.413,228.02,456.017,684.015
bas,ste,1,130114,bas_ste_run1_130114,NP,7,2,wealth,4000,1,573,2,2,257917,266716,267289,96303,11,161.614,170.413,170.986,28.418,256.416,484.413,228.02,456.017,684.015
bas,ste,1,130114,bas_ste_run1_130114,NP,8,2,bush,1600,1,786,2,2,272315,281113,281899,96303,12,176.012,184.81,185.596,28.418,256.416,484.413,228.02,456.017,684.015
bas,ste,1,130114,bas_ste_run1_130114,NN,7,1,straw,2800,0,977,2,1,284313,293111,294088,96303,13,188.01,196.808,197.785,28.418,256.416,484.413,228.02,456.017,684.015
bas,ste,1,130114,bas_ste_run1_130114,NP,6,1,frost,2800,1,1191,2,2,297511,306309,307500,96303,14,201.208,210.006,211.197,28.418,256.416,484.413,228.02,456.017,684.015
bas,ste,1,130114,bas_ste_run1_130114,RN,5,1,quart,4000,1,712,1,1,310709,319507,320219,96303,15,214.406,223.204,223.916,28.418,256.416,484.413,228.02,456.017,684.015
bas,ste,1,130114,bas_ste_run1_130114,NN,6,1,taxi,2800,1,587,1,1,355118,363917,364504,96303,16,258.815,267.614,268.201,28.418,256.416,484.413,228.02,456.017,684.015
bas,ste,1,130114,bas_ste_run1_130114,NN,8,2,liar,2800,1,756,1,1,368316,377115,377871,96303,17,272.013,280.812,281.568,28.418,256.416,484.413,228.02,456.017,684.015
bas,ste,1,130114,bas_ste_run1_130114,NP,7,2,need,1600,1,1149,2,2,381514,390313,391462,96303,18,285.211,294.01,295.159,28.418,256.416,484.413,228.02,456.017,684.015
bas,ste,1,130114,bas_ste_run1_130114,NP,7,2,bean,4000,1,1185,2,2,393512,402311,403496,96303,19,297.209,306.008,307.193,28.418,256.416,484.413,228.02,456.017,684.015
bas,ste,1,130114,bas_ste_run1_130114,NP,8,3,bees,2800,1,602,2,2,407910,416709,417311,96303,20,311.607,320.406,321.008,28.418,256.416,484.413,228.02,456.017,684.015
bas,ste,1,130114,bas_ste_run1_130114,NP,5,3,visit,4000,1,671,2,2,421108,429907,430578,96303,21,324.805,333.604,334.275,28.418,256.416,484.413,228.02,456.017,684.015
bas,ste,1,130114,bas_ste_run1_130114,NN,7,1,logic,4000,1,1061,1,1,435506,444304,445365,96303,22,339.203,348.001,349.062,28.418,256.416,484.413,228.02,456.017,684.015
bas,ste,1,130114,bas_ste_run1_130114,NP,5,3,people,4000,1,833,2,2,449920,458719,459552,96303,23,353.617,362.416,363.249,28.418,256.416,484.413,228.02,456.017,684.015
bas,ste,1,130114,bas_ste_run1_130114,NN,8,2,heater,1600,1,1446,1,1,464318,473116,474562,96303,24,368.015,376.813,378.259,28.418,256.416,484.413,228.02,456.017,684.015
bas,ste,1,130114,bas_ste_run1_130114,RN,5,1,noise,2800,0,1032,2,1,476316,485114,486146,96303,25,380.013,388.811,389.843,28.418,256.416,484.413,228.02,456.017,684.015
bas,ste,1,130114,bas_ste_run1_130114,NN,5,2,pole,2800,1,1209,1,1,489514,498312,499521,96303,26,393.211,402.009,403.218,28.418,256.416,484.413,228.02,456.017,684.015
bas,ste,1,130114,bas_ste_run1_130114,NP,8,3,city,1600,1,857,2,2,502712,511510,512367,96303,27,406.409,415.207,416.064,28.418,256.416,484.413,228.02,456.017,684.015
bas,ste,1,130114,bas_ste_run1_130114,NP,8,3,carpet,4000,1,1068,2,2,514710,523508,524576,96303,28,418.407,427.205,428.273,28.418,256.416,484.413,228.02,456.017,684.015
bas,ste,1,130114,bas_ste_run1_130114,NP,5,3,tags,1600,1,909,2,2,529107,537906,538815,96303,29,432.804,441.603,442.512,28.418,256.416,484.413,228.02,456.017,684.015
bas,ste,1,130114,bas_ste_run1_130114,NN,5,2,greed,1600,1,939,1,1,541106,549904,550843,96303,30,444.803,453.601,454.54,28.418,256.416,484.413,228.02,456.017,684.015
bas,ste,1,130114,bas_ste_run1_130114,NN,5,2,pans,4000,1,803,1,1,583116,591914,592717,96303,31,486.813,495.611,496.414,28.418,256.416,484.413,228.02,456.017,684.015
bas,ste,1,130114,bas_ste_run1_130114,NP,5,3,muscle,2800,1,933,2,2,597513,606312,607245,96303,32,501.21,510.009,510.942,28.418,256.416,484.413,228.02,456.017,684.015
bas,ste,1,130114,bas_ste_run1_130114,NP,8,2,bugs,2800,1,726,2,2,610711,619510,620236,96303,33,514.408,523.207,523.933,28.418,256.416,484.413,228.02,456.017,684.015
bas,ste,1,130114,bas_ste_run1_130114,RN,5,1,fusion,4000,1,1860,1,1,623909,632708,634568,96303,34,527.606,536.405,538.265,28.418,256.416,484.413,228.02,456.017,684.015
bas,ste,1,130114,bas_ste_run1_130114,NN,8,2,shell,4000,1,1151,1,1,638307,647105,648256,96303,35,542.004,550.802,551.953,28.418,256.416,484.413,228.02,456.017,684.015
bas,ste,1,130114,bas_ste_run1_130114,NP,7,1,clue,2800,1,789,2,2,652705,661520,662309,96303,36,556.402,565.217,566.006,28.418,256.416,484.413,228.02,456.017,684.015
bas,ste,1,130114,bas_ste_run1_130114,NP,8,2,wife,4000,1,944,2,2,665919,674718,675662,96303,37,569.616,578.415,579.359,28.418,256.416,484.413,228.02,456.017,684.015
bas,ste,1,130114,bas_ste_run1_130114,NN,5,2,gift,1600,1,1581,1,1,680317,689116,690697,96303,38,584.014,592.813,594.394,28.418,256.416,484.413,228.02,456.017,684.015
bas,ste,1,130114,bas_ste_run1_130114,NP,6,1,food,4000,1,935,2,2,692315,701114,702049,96303,39,596.012,604.811,605.746,28.418,256.416,484.413,228.02,456.017,684.015
bas,ste,1,130114,bas_ste_run1_130114,RN,8,1,ground,2800,0,1710,2,1,706713,715511,717221,96303,40,610.41,619.208,620.918,28.418,256.416,484.413,228.02,456.017,684.015
bas,ste,1,130114,bas_ste_run1_130114,NP,5,3,marker,1600,1,744,2,2,719911,728709,729453,96303,41,623.608,632.406,633.15,28.418,256.416,484.413,228.02,456.017,684.015
bas,ste,1,130114,bas_ste_run1_130114,NN,8,2,signal,1600,1,828,1,1,731909,740707,741535,96303,42,635.606,644.404,645.232,28.418,256.416,484.413,228.02,456.017,684.015
bas,ste,1,130114,bas_ste_run1_130114,NP,5,3,curve,2800,1,860,2,2,743907,752705,753565,96303,43,647.604,656.402,657.262,28.418,256.416,484.413,228.02,456.017,684.015
bas,ste,1,130114,bas_ste_run1_130114,NN,7,2,pledge,1600,1,699,1,1,757105,765920,766619,96303,44,660.802,669.617,670.316,28.418,256.416,484.413,228.02,456.017,684.015
bas,ste,1,130114,bas_ste_run1_130114,NN,7,2,berry,1600,1,881,1,1,769120,777918,778799,96303,45,672.817,681.615,682.496,28.418,256.416,484.413,228.02,456.017,684.015
bas,ste,2,130114,bas_ste_run2_130114,NP,5,3,north,2800,1,595,2,2,53628,62426,63021,22806,1,30.822,39.62,40.215,28.422,256.419,484.417,228.024,456.021,684.035
bas,ste,2,130114,bas_ste_run2_130114,NP,5,3,ransom,4000,1,1225,2,2,66825,75624,76849,22806,2,44.019,52.818,54.043,28.422,256.419,484.417,228.024,456.021,684.035
bas,ste,2,130114,bas_ste_run2_130114,NN,5,2,chin,1600,1,694,1,1,81223,90022,90716,22806,3,58.417,67.216,67.91,28.422,256.419,484.417,228.024,456.021,684.035
bas,ste,2,130114,bas_ste_run2_130114,NN,6,1,whale,4000,1,818,1,1,93221,102020,102838,22806,4,70.415,79.214,80.032,28.422,256.419,484.417,228.024,456.021,684.035
bas,ste,2,130114,bas_ste_run2_130114,NN,8,2,cotton,2800,1,669,1,1,107619,116434,117103,22806,5,84.813,93.628,94.297,28.422,256.419,484.417,228.024,456.021,684.035
bas,ste,2,130114,bas_ste_run2_130114,NP,5,3,wheel,2800,1,815,2,2,120834,129632,130447,22806,6,98.028,106.826,107.641,28.422,256.419,484.417,228.024,456.021,684.035
bas,ste,2,130114,bas_ste_run2_130114,RN,5,1,cabin,1600,1,1094,1,1,134032,142830,143924,22806,7,111.226,120.024,121.118,28.422,256.419,484.417,228.024,456.021,684.035
bas,ste,2,130114,bas_ste_run2_130114,NN,5,2,hatch,4000,1,678,1,1,146030,154828,155506,22806,8,123.224,132.022,132.7,28.422,256.419,484.417,228.024,456.021,684.035
bas,ste,2,130114,bas_ste_run2_130114,NN,7,1,flame,4000,1,825,1,1,160427,169226,170051,22806,9,137.621,146.42,147.245,28.422,256.419,484.417,228.024,456.021,684.035
bas,ste,2,130114,bas_ste_run2_130114,NP,6,1,dollar,1600,1,867,2,2,174825,183624,184491,22806,10,152.019,160.818,161.685,28.422,256.419,484.417,228.024,456.021,684.035
bas,ste,2,130114,bas_ste_run2_130114,NP,8,2,exam,1600,1,671,2,2,186823,195622,196293,22806,11,164.017,172.816,173.487,28.422,256.419,484.417,228.024,456.021,684.035
bas,ste,2,130114,bas_ste_run2_130114,NN,8,2,lesson,2800,1,860,1,1,198821,207620,208480,22806,12,176.015,184.814,185.674,28.422,256.419,484.417,228.024,456.021,684.035
bas,ste,2,130114,bas_ste_run2_130114,NP,7,1,teeth,1600,1,899,2,2,212019,220818,221717,22806,13,189.213,198.012,198.911,28.422,256.419,484.417,228.024,456.021,684.035
bas,ste,2,130114,bas_ste_run2_130114,NP,8,2,kids,4000,1,1065,2,2,224034,232833,233898,22806,14,201.228,210.027,211.092,28.422,256.419,484.417,228.024,456.021,684.035
bas,ste,2,130114,bas_ste_run2_130114,RN,7,1,jars,2800,1,804,1,1,238432,247230,248034,22806,15,215.626,224.424,225.228,28.422,256.419,484.417,228.024,456.021,684.035
bas,ste,2,130114,bas_ste_run2_130114,NP,5,3,harp,1600,1,796,2,2,281625,290423,291219,22806,16,258.819,267.617,268.413,28.422,256.419,484.417,228.024,456.021,684.035
bas,ste,2,130114,bas_ste_run2_130114,NN,8,2,sled,4000,1,986,1,1,293623,302422,303408,22806,17,270.817,279.616,280.602,28.422,256.419,484.417,228.024,456.021,684.035
bas,ste,2,130114,bas_ste_run2_130114,RN,8,1,house,1600,1,1568,1,1,308021,316819,318387,22806,18,285.215,294.013,295.581,28.422,256.419,484.417,228.024,456.021,684.035
bas,ste,2,130114,bas_ste_run2_130114,NP,5,3,store,1600,1,824,2,2,320019,328834,329658,22806,19,297.213,306.028,306.852,28.422,256.419,484.417,228.024,456.021,684.035
bas,ste,2,130114,bas_ste_run2_130114,RN,5,1,soil,2800,1,1718,1,1,332034,340832,342550,22806,20,309.228,318.026,319.744,28.422,256.419,484.417,228.024,456.021,684.035
bas,ste,2,130114,bas_ste_run2_130114,NN,6,1,zebra,4000,1,471,1,1,345231,354030,354501,22806,21,322.425,331.224,331.695,28.422,256.419,484.417,228.024,456.021,684.035
bas,ste,2,130114,bas_ste_run2_130114,NP,8,2,action,4000,1,941,2,2,359629,368428,369369,22806,22,336.823,345.622,346.563,28.422,256.419,484.417,228.024,456.021,684.035
bas,ste,2,130114,bas_ste_run2_130114,NN,7,1,poison,4000,1,845,1,1,374027,382826,383671,22806,23,351.221,360.02,360.865,28.422,256.419,484.417,228.024,456.021,684.035
bas,ste,2,130114,bas_ste_run2_130114,NN,5,2,heaven,1600,1,670,1,1,388425,397223,397893,22806,24,365.619,374.417,375.087,28.422,256.419,484.417,228.024,456.021,684.035
bas,ste,2,130114,bas_ste_run2_130114,NP,8,2,text,2800,1,854,2,2,400423,409221,410075,22806,25,377.617,386.415,387.269,28.422,256.419,484.417,228.024,456.021,684.035
bas,ste,2,130114,bas_ste_run2_130114,NP,5,3,others,2800,1,1802,2,2,413621,422419,424221,22806,26,390.815,399.613,401.415,28.422,256.419,484.417,228.024,456.021,684.035
bas,ste,2,130114,bas_ste_run2_130114,NP,7,2,crime,4000,1,853,2,2,426819,435634,436487,22806,27,404.013,412.828,413.681,28.422,256.419,484.417,228.024,456.021,684.035
bas,ste,2,130114,bas_ste_run2_130114,NN,5,2,barber,1600,1,695,1,1,441233,450032,450727,22806,28,418.427,427.226,427.921,28.422,256.419,484.417,228.024,456.021,684.035
bas,ste,2,130114,bas_ste_run2_130114,NN,8,2,steel,2800,1,655,1,1,453231,462030,462685,22806,29,430.425,439.224,439.879,28.422,256.419,484.417,228.024,456.021,684.035
bas,ste,2,130114,bas_ste_run2_130114,NP,7,2,cherry,2800,1,968,2,2,466429,475228,476196,22806,30,443.623,452.422,453.39,28.422,256.419,484.417,228.024,456.021,684.035
bas,ste,2,130114,bas_ste_run2_130114,NN,7,2,book,4000,1,797,1,1,509622,518421,519218,22806,31,486.816,495.615,496.412,28.422,256.419,484.417,228.024,456.021,684.035
bas,ste,2,130114,bas_ste_run2_130114,NP,7,1,photo,1600,1,744,2,2,524020,532818,533562,22806,32,501.214,510.012,510.756,28.422,256.419,484.417,228.024,456.021,684.035
bas,ste,2,130114,bas_ste_run2_130114,NP,6,1,profit,4000,0,0,,2,536018,544833,0,22806,33,513.212,522.027,-22.806,28.422,256.419,484.417,228.024,456.021,684.035
bas,ste,2,130114,bas_ste_run2_130114,NN,7,2,word,4000,1,645,1,1,550432,559231,559876,22806,34,527.626,536.425,537.07,28.422,256.419,484.417,228.024,456.021,684.035
bas,ste,2,130114,bas_ste_run2_130114,NP,8,3,paper,1600,1,777,2,2,564830,573629,574406,22806,35,542.024,550.823,551.6,28.422,256.419,484.417,228.024,456.021,684.035
bas,ste,2,130114,bas_ste_run2_130114,NP,8,3,pony,2800,1,725,2,2,576828,585627,586352,22806,36,554.022,562.821,563.546,28.422,256.419,484.417,228.024,456.021,684.035
bas,ste,2,130114,bas_ste_run2_130114,NP,5,3,fluid,1600,1,717,2,2,590026,598825,599542,22806,37,567.22,576.019,576.736,28.422,256.419,484.417,228.024,456.021,684.035
bas,ste,2,130114,bas_ste_run2_130114,NN,8,1,church,4000,1,848,1,1,602024,610823,611671,22806,38,579.218,588.017,588.865,28.422,256.419,484.417,228.024,456.021,684.035
bas,ste,2,130114,bas_ste_run2_130114,NN,5,2,story,2800,1,667,1,1,616422,625221,625888,22806,39,593.616,602.415,603.082,28.422,256.419,484.417,228.024,456.021,684.035
bas,ste,2,130114,bas_ste_run2_130114,NP,5,3,yard,1600,1,797,2,2,629620,638418,639215,22806,40,606.814,615.612,616.409,28.422,256.419,484.417,228.024,456.021,684.035
bas,ste,2,130114,bas_ste_run2_130114,RN,5,1,owner,2800,1,1486,1,1,641618,650433,651919,22806,41,618.812,627.627,629.113,28.422,256.419,484.417,228.024,456.021,684.035
bas,ste,2,130114,bas_ste_run2_130114,NP,5,3,honey,1600,1,943,2,2,654833,663631,664574,22806,42,632.027,640.825,641.768,28.422,256.419,484.417,228.024,456.021,684.035
bas,ste,2,130114,bas_ste_run2_130114,NN,6,1,cows,4000,1,657,1,1,666831,675629,676286,22806,43,644.025,652.823,653.48,28.422,256.419,484.417,228.024,456.021,684.035
bas,ste,2,130114,bas_ste_run2_130114,NP,8,3,pilot,2800,1,922,2,2,681228,690027,690949,22806,44,658.422,667.221,668.143,28.422,256.419,484.417,228.024,456.021,684.035
bas,ste,2,130114,bas_ste_run2_130114,NN,5,2,train,2800,1,770,1,1,694426,703225,703995,22806,45,671.62,680.419,681.189,28.422,256.419,484.417,228.024,456.021,684.035
bas,ste,1,130518,bas_ste_run1_130518,NP,5,3,syrup,1600,1,1556,2,2,137437,146236,147792,106615,1,30.822,39.621,41.177,28.422,256.419,484.416,228.024,456.02,684.034
bas,ste,1,130518,bas_ste_run1_130518,NN,8,2,scale,4000,1,1059,1,1,149435,158234,159293,106615,2,42.82,51.619,52.678,28.422,256.419,484.416,228.024,456.02,684.034
bas,ste,1,130518,bas_ste_run1_130518,NN,8,2,doll,4000,1,716,1,1,163833,172631,173347,106615,3,57.218,66.016,66.732,28.422,256.419,484.416,228.024,456.02,684.034
bas,ste,1,130518,bas_ste_run1_130518,NP,5,3,threat,4000,1,631,2,2,178230,187029,187660,106615,4,71.615,80.414,81.045,28.422,256.419,484.416,228.024,456.02,684.034
bas,ste,1,130518,bas_ste_run1_130518,NN,6,1,parrot,1600,1,1163,1,1,192628,201443,202606,106615,5,86.013,94.828,95.991,28.422,256.419,484.416,228.024,456.02,684.034
bas,ste,1,130518,bas_ste_run1_130518,NP,8,2,chance,2800,1,982,2,2,204643,213441,214423,106615,6,98.028,106.826,107.808,28.422,256.419,484.416,228.024,456.02,684.034
bas,ste,1,130518,bas_ste_run1_130518,NN,5,2,blur,1600,0,1401,2,1,217841,226639,228040,106615,7,111.226,120.024,121.425,28.422,256.419,484.416,228.024,456.02,684.034
bas,ste,1,130518,bas_ste_run1_130518,NP,7,2,rash,2800,1,1174,2,2,229839,238637,239811,106615,8,123.224,132.022,133.196,28.422,256.419,484.416,228.024,456.02,684.034
bas,ste,1,130518,bas_ste_run1_130518,NN,5,2,tube,1600,1,1140,1,1,243037,251835,252975,106615,9,136.422,145.22,146.36,28.422,256.419,484.416,228.024,456.02,684.034
bas,ste,1,130518,bas_ste_run1_130518,NP,5,3,share,2800,0,1082,1,2,255035,263833,264915,106615,10,148.42,157.218,158.3,28.422,256.419,484.416,228.024,456.02,684.034
bas,ste,1,130518,bas_ste_run1_130518,NP,7,2,wealth,2800,1,967,2,2,268233,277031,277998,106615,11,161.618,170.416,171.383,28.422,256.419,484.416,228.024,456.02,684.034
bas,ste,1,130518,bas_ste_run1_130518,NP,8,2,bush,1600,1,1098,2,2,281431,290229,291327,106615,12,174.816,183.614,184.712,28.422,256.419,484.416,228.024,456.02,684.034
bas,ste,1,130518,bas_ste_run1_130518,NN,7,1,straw,2800,1,1021,1,1,293429,302227,303248,106615,13,186.814,195.612,196.633,28.422,256.419,484.416,228.024,456.02,684.034
bas,ste,1,130518,bas_ste_run1_130518,NP,6,1,frost,4000,1,1249,2,2,306643,315442,316691,106615,14,200.028,208.827,210.076,28.422,256.419,484.416,228.024,456.02,684.034
bas,ste,1,130518,bas_ste_run1_130518,RN,5,1,quart,4000,0,1571,2,1,321041,329839,331410,106615,15,214.426,223.224,224.795,28.422,256.419,484.416,228.024,456.02,684.034
bas,ste,1,130518,bas_ste_run1_130518,NN,6,1,taxi,4000,0,1348,2,1,365434,374232,375580,106615,16,258.819,267.617,268.965,28.422,256.419,484.416,228.024,456.02,684.034
bas,ste,1,130518,bas_ste_run1_130518,NN,8,2,liar,4000,1,1170,1,1,379831,388630,389800,106615,17,273.216,282.015,283.185,28.422,256.419,484.416,228.024,456.02,684.034
bas,ste,1,130518,bas_ste_run1_130518,NP,7,2,need,2800,0,1153,1,2,394229,403028,404181,106615,18,287.614,296.413,297.566,28.422,256.419,484.416,228.024,456.02,684.034
bas,ste,1,130518,bas_ste_run1_130518,NP,7,2,bean,2800,1,1070,2,2,407427,416242,417312,106615,19,300.812,309.627,310.697,28.422,256.419,484.416,228.024,456.02,684.034
bas,ste,1,130518,bas_ste_run1_130518,NP,8,3,bees,4000,1,908,2,2,420642,429440,430348,106615,20,314.027,322.825,323.733,28.422,256.419,484.416,228.024,456.02,684.034
bas,ste,1,130518,bas_ste_run1_130518,NP,5,3,visit,4000,1,1027,2,2,435039,443838,444865,106615,21,328.424,337.223,338.25,28.422,256.419,484.416,228.024,456.02,684.034
bas,ste,1,130518,bas_ste_run1_130518,NN,7,1,logic,2800,1,1159,1,1,449437,458236,459395,106615,22,342.822,351.621,352.78,28.422,256.419,484.416,228.024,456.02,684.034
bas,ste,1,130518,bas_ste_run1_130518,NP,5,3,people,1600,1,1000,2,2,462635,471433,472433,106615,23,356.02,364.818,365.818,28.422,256.419,484.416,228.024,456.02,684.034
bas,ste,1,130518,bas_ste_run1_130518,NN,8,2,heater,1600,0,0,,1,474633,483431,0,106615,24,368.018,376.816,-106.615,28.422,256.419,484.416,228.024,456.02,684.034
bas,ste,1,130518,bas_ste_run1_130518,RN,5,1,noise,2800,0,918,2,1,486631,495430,496348,106615,25,380.016,388.815,389.733,28.422,256.419,484.416,228.024,456.02,684.034
bas,ste,1,130518,bas_ste_run1_130518,NN,5,2,pole,1600,1,773,1,1,499829,508627,509400,106615,26,393.214,402.012,402.785,28.422,256.419,484.416,228.024,456.02,684.034
bas,ste,1,130518,bas_ste_run1_130518,NP,8,3,city,1600,1,1040,2,2,511827,520642,521682,106615,27,405.212,414.027,415.067,28.422,256.419,484.416,228.024,456.02,684.034
bas,ste,1,130518,bas_ste_run1_130518,NP,8,3,carpet,2800,1,1351,2,2,523842,532640,533991,106615,28,417.227,426.025,427.376,28.422,256.419,484.416,228.024,456.02,684.034
bas,ste,1,130518,bas_ste_run1_130518,NP,5,3,tags,4000,1,791,2,2,537040,545838,546629,106615,29,430.425,439.223,440.014,28.422,256.419,484.416,228.024,456.02,684.034
bas,ste,1,130518,bas_ste_run1_130518,NN,5,2,greed,1600,1,921,1,1,551437,560236,561157,106615,30,444.822,453.621,454.542,28.422,256.419,484.416,228.024,456.02,684.034
bas,ste,1,130518,bas_ste_run1_130518,NN,5,2,pans,2800,1,1387,1,1,593431,602229,603616,106615,31,486.816,495.614,497.001,28.422,256.419,484.416,228.024,456.02,684.034
bas,ste,1,130518,bas_ste_run1_130518,NP,5,3,muscle,4000,1,777,2,2,606628,615427,616204,106615,32,500.013,508.812,509.589,28.422,256.419,484.416,228.024,456.02,684.034
bas,ste,1,130518,bas_ste_run1_130518,NP,8,2,bugs,2800,1,1137,2,2,621043,629841,630978,106615,33,514.428,523.226,524.363,28.422,256.419,484.416,228.024,456.02,684.034
bas,ste,1,130518,bas_ste_run1_130518,RN,5,1,fusion,4000,0,956,2,1,634241,643039,643995,106615,34,527.626,536.424,537.38,28.422,256.419,484.416,228.024,456.02,684.034
bas,ste,1,130518,bas_ste_run1_130518,NN,8,2,shell,2800,1,1023,1,1,648638,657437,658460,106615,35,542.023,550.822,551.845,28.422,256.419,484.416,228.024,456.02,684.034
bas,ste,1,130518,bas_ste_run1_130518,NP,7,1,clue,1600,1,810,2,2,661836,670635,671445,106615,36,555.221,564.02,564.83,28.422,256.419,484.416,228.024,456.02,684.034
bas,ste,1,130518,bas_ste_run1_130518,NP,8,2,wife,4000,1,848,2,2,673834,682633,683481,106615,37,567.219,576.018,576.866,28.422,256.419,484.416,228.024,456.02,684.034
bas,ste,1,130518,bas_ste_run1_130518,NN,5,2,gift,1600,1,919,1,1,688232,697031,697950,106615,38,581.617,590.416,591.335,28.422,256.419,484.416,228.024,456.02,684.034
bas,ste,1,130518,bas_ste_run1_130518,NP,6,1,food,1600,1,1301,2,2,700230,709029,710330,106615,39,593.615,602.414,603.715,28.422,256.419,484.416,228.024,456.02,684.034
bas,ste,1,130518,bas_ste_run1_130518,RN,8,1,ground,4000,0,1248,2,1,712228,721043,722291,106615,40,605.613,614.428,615.676,28.422,256.419,484.416,228.024,456.02,684.034
bas,ste,1,130518,bas_ste_run1_130518,NP,5,3,marker,1600,0,1384,1,2,726643,735441,736825,106615,41,620.028,628.826,630.21,28.422,256.419,484.416,228.024,456.02,684.034
bas,ste,1,130518,bas_ste_run1_130518,NN,8,2,signal,1600,1,943,1,1,738641,747439,748382,106615,42,632.026,640.824,641.767,28.422,256.419,484.416,228.024,456.02,684.034
bas,ste,1,130518,bas_ste_run1_130518,NP,5,3,curve,2800,0,1159,1,2,750639,759437,760596,106615,43,644.024,652.822,653.981,28.422,256.419,484.416,228.024,456.02,684.034
bas,ste,1,130518,bas_ste_run1_130518,NN,7,2,pledge,4000,1,949,1,1,763837,772635,773584,106615,44,657.222,666.02,666.969,28.422,256.419,484.416,228.024,456.02,684.034
bas,ste,1,130518,bas_ste_run1_130518,NN,7,2,berry,2800,1,905,1,1,778234,787033,787938,106615,45,671.619,680.418,681.323,28.422,256.419,484.416,228.024,456.02,684.034
bas,ste,2,130518,bas_ste_run2_130518,NP,5,3,north,2800,1,795,2,2,75705,84504,85299,44897,1,30.808,39.607,40.402,28.408,256.422,484.419,228.026,456.023,684.02
bas,ste,2,130518,bas_ste_run2_130518,NP,5,3,ransom,2800,1,902,2,2,88903,97718,98620,44897,2,44.006,52.821,53.723,28.408,256.422,484.419,228.026,456.023,684.02
bas,ste,2,130518,bas_ste_run2_130518,NN,5,2,chin,1600,1,933,1,1,102117,110916,111849,44897,3,57.22,66.019,66.952,28.408,256.422,484.419,228.026,456.023,684.02
bas,ste,2,130518,bas_ste_run2_130518,NN,6,1,whale,4000,1,1047,1,1,114116,122914,123961,44897,4,69.219,78.017,79.064,28.408,256.422,484.419,228.026,456.023,684.02
bas,ste,2,130518,bas_ste_run2_130518,NN,8,2,cotton,4000,1,812,1,1,128513,137312,138124,44897,5,83.616,92.415,93.227,28.408,256.422,484.419,228.026,456.023,684.02
bas,ste,2,130518,bas_ste_run2_130518,NP,5,3,wheel,4000,1,1328,2,2,142911,151709,153037,44897,6,98.014,106.812,108.14,28.408,256.422,484.419,228.026,456.023,684.02
bas,ste,2,130518,bas_ste_run2_130518,RN,5,1,cabin,2800,0,939,2,1,157309,166107,167046,44897,7,112.412,121.21,122.149,28.408,256.422,484.419,228.026,456.023,684.02
bas,ste,2,130518,bas_ste_run2_130518,NN,5,2,hatch,1600,1,977,1,1,170506,179305,180282,44897,8,125.609,134.408,135.385,28.408,256.422,484.419,228.026,456.023,684.02
bas,ste,2,130518,bas_ste_run2_130518,NN,7,1,flame,2800,1,748,1,1,182505,191303,192051,44897,9,137.608,146.406,147.154,28.408,256.422,484.419,228.026,456.023,684.02
bas,ste,2,130518,bas_ste_run2_130518,NP,6,1,dollar,2800,1,1196,2,2,195719,204518,205714,44897,10,150.822,159.621,160.817,28.408,256.422,484.419,228.026,456.023,684.02
bas,ste,2,130518,bas_ste_run2_130518,NP,8,2,exam,4000,1,866,2,2,208917,217716,218582,44897,11,164.02,172.819,173.685,28.408,256.422,484.419,228.026,456.023,684.02
bas,ste,2,130518,bas_ste_run2_130518,NN,8,2,lesson,1600,1,983,1,1,223315,232113,233096,44897,12,178.418,187.216,188.199,28.408,256.422,484.419,228.026,456.023,684.02
bas,ste,2,130518,bas_ste_run2_130518,NP,7,1,teeth,4000,0,1581,1,2,235313,244111,245692,44897,13,190.416,199.214,200.795,28.408,256.422,484.419,228.026,456.023,684.02
bas,ste,2,130518,bas_ste_run2_130518,NP,8,2,kids,1600,1,953,2,2,249710,258509,259462,44897,14,204.813,213.612,214.565,28.408,256.422,484.419,228.026,456.023,684.02
bas,ste,2,130518,bas_ste_run2_130518,RN,7,1,jars,1600,0,996,2,1,261709,270507,271503,44897,15,216.812,225.61,226.606,28.408,256.422,484.419,228.026,456.023,684.02
bas,ste,2,130518,bas_ste_run2_130518,NP,5,3,harp,1600,1,777,2,2,303718,312517,313294,44897,16,258.821,267.62,268.397,28.408,256.422,484.419,228.026,456.023,684.02
bas,ste,2,130518,bas_ste_run2_130518,NN,8,2,sled,1600,0,935,2,1,315716,324515,325450,44897,17,270.819,279.618,280.553,28.408,256.422,484.419,228.026,456.023,684.02
bas,ste,2,130518,bas_ste_run2_130518,RN,8,1,house,4000,1,1132,1,1,327715,336513,337645,44897,18,282.818,291.616,292.748,28.408,256.422,484.419,228.026,456.023,684.02
bas,ste,2,130518,bas_ste_run2_130518,NP,5,3,store,4000,1,864,2,2,342112,350911,351775,44897,19,297.215,306.014,306.878,28.408,256.422,484.419,228.026,456.023,684.02
bas,ste,2,130518,bas_ste_run2_130518,RN,5,1,soil,4000,0,1832,2,1,356510,365309,367141,44897,20,311.613,320.412,322.244,28.408,256.422,484.419,228.026,456.023,684.02
bas,ste,2,130518,bas_ste_run2_130518,NN,6,1,zebra,4000,1,1145,1,1,370908,379706,380851,44897,21,326.011,334.809,335.954,28.408,256.422,484.419,228.026,456.023,684.02
bas,ste,2,130518,bas_ste_run2_130518,NP,8,2,action,1600,1,1030,2,2,385305,394104,395134,44897,22,340.408,349.207,350.237,28.408,256.422,484.419,228.026,456.023,684.02
bas,ste,2,130518,bas_ste_run2_130518,NN,7,1,poison,1600,1,1000,1,1,397303,406119,407119,44897,23,352.406,361.222,362.222,28.408,256.422,484.419,228.026,456.023,684.02
bas,ste,2,130518,bas_ste_run2_130518,NN,5,2,heaven,2800,1,750,1,1,409318,418117,418867,44897,24,364.421,373.22,373.97,28.408,256.422,484.419,228.026,456.023,684.02
bas,ste,2,130518,bas_ste_run2_130518,NP,8,2,text,2800,0,1919,1,2,422516,431315,433234,44897,25,377.619,386.418,388.337,28.408,256.422,484.419,228.026,456.023,684.02
bas,ste,2,130518,bas_ste_run2_130518,NP,5,3,others,2800,1,1042,2,2,435714,444513,445555,44897,26,390.817,399.616,400.658,28.408,256.422,484.419,228.026,456.023,684.02
bas,ste,2,130518,bas_ste_run2_130518,NP,7,2,crime,4000,1,854,2,2,448912,457710,458564,44897,27,404.015,412.813,413.667,28.408,256.422,484.419,228.026,456.023,684.02
bas,ste,2,130518,bas_ste_run2_130518,NN,5,2,barber,2800,1,1089,1,1,463310,472108,473197,44897,28,418.413,427.211,428.3,28.408,256.422,484.419,228.026,456.023,684.02
bas,ste,2,130518,bas_ste_run2_130518,NN,8,2,steel,2800,1,1214,1,1,476507,485306,486520,44897,29,431.61,440.409,441.623,28.408,256.422,484.419,228.026,456.023,684.02
bas,ste,2,130518,bas_ste_run2_130518,NP,7,2,cherry,1600,1,898,2,2,489705,498504,499402,44897,30,444.808,453.607,454.505,28.408,256.422,484.419,228.026,456.023,684.02
bas,ste,2,130518,bas_ste_run2_130518,NN,7,2,book,4000,1,1246,1,1,531715,540514,541760,44897,31,486.818,495.617,496.863,28.408,256.422,484.419,228.026,456.023,684.02
bas,ste,2,130518,bas_ste_run2_130518,NP,7,1,photo,4000,1,1251,2,2,546113,554911,556162,44897,32,501.216,510.014,511.265,28.408,256.422,484.419,228.026,456.023,684.02
bas,ste,2,130518,bas_ste_run2_130518,NP,6,1,profit,2800,1,1539,2,2,560511,569309,570848,44897,33,515.614,524.412,525.951,28.408,256.422,484.419,228.026,456.023,684.02
bas,ste,2,130518,bas_ste_run2_130518,NN,7,2,word,1600,1,1060,1,1,573708,582507,583567,44897,34,528.811,537.61,538.67,28.408,256.422,484.419,228.026,456.023,684.02
bas,ste,2,130518,bas_ste_run2_130518,NP,8,3,paper,4000,1,1205,2,2,585707,594505,595710,44897,35,540.81,549.608,550.813,28.408,256.422,484.419,228.026,456.023,684.02
bas,ste,2,130518,bas_ste_run2_130518,NP,8,3,pony,4000,1,727,2,2,600104,608903,609630,44897,36,555.207,564.006,564.733,28.408,256.422,484.419,228.026,456.023,684.02
bas,ste,2,130518,bas_ste_run2_130518,NP,5,3,fluid,1600,1,771,2,2,614519,623317,624088,44897,37,569.622,578.42,579.191,28.408,256.422,484.419,228.026,456.023,684.02
bas,ste,2,130518,bas_ste_run2_130518,NN,8,1,church,2800,1,781,1,1,626517,635315,636096,44897,38,581.62,590.418,591.199,28.408,256.422,484.419,228.026,456.023,684.02
bas,ste,2,130518,bas_ste_run2_130518,NN,5,2,story,4000,1,760,1,1,639715,648513,649273,44897,39,594.818,603.616,604.376,28.408,256.422,484.419,228.026,456.023,684.02
bas,ste,2,130518,bas_ste_run2_130518,NP,5,3,yard,2800,1,1232,2,2,654112,662911,664143,44897,40,609.215,618.014,619.246,28.408,256.422,484.419,228.026,456.023,684.02
bas,ste,2,130518,bas_ste_run2_130518,RN,5,1,owner,2800,1,1044,1,1,667310,676109,677153,44897,41,622.413,631.212,632.256,28.408,256.422,484.419,228.026,456.023,684.02
bas,ste,2,130518,bas_ste_run2_130518,NP,5,3,honey,1600,1,956,2,2,680508,689307,690263,44897,42,635.611,644.41,645.366,28.408,256.422,484.419,228.026,456.023,684.02
bas,ste,2,130518,bas_ste_run2_130518,NN,6,1,cows,1600,1,1212,1,1,692506,701305,702517,44897,43,647.609,656.408,657.62,28.408,256.422,484.419,228.026,456.023,684.02
bas,ste,2,130518,bas_ste_run2_130518,NP,8,3,pilot,1600,1,1230,2,2,704504,713303,714533,44897,44,659.607,668.406,669.636,28.408,256.422,484.419,228.026,456.023,684.02
bas,ste,2,130518,bas_ste_run2_130518,NN,5,2,train,2800,1,912,1,1,716519,725317,726229,44897,45,671.622,680.42,681.332,28.408,256.422,484.419,228.026,456.023,684.02
bas,ste,1,132017,bas_ste_run1_132017,NP,5,3,syrup,1600,0,0,,2,115977,124775,0,85160,1,30.817,39.615,-85.16,28.417,256.431,484.428,228.035,456.033,684.03
bas,ste,1,132017,bas_ste_run1_132017,NN,8,2,scale,4000,1,1018,1,1,127975,136790,137808,85160,2,42.815,51.63,52.648,28.417,256.431,484.428,228.035,456.033,684.03
bas,ste,1,132017,bas_ste_run1_132017,NN,8,2,doll,2800,1,1014,1,1,142389,151188,152202,85160,3,57.229,66.028,67.042,28.417,256.431,484.428,228.035,456.033,684.03
bas,ste,1,132017,bas_ste_run1_132017,NP,5,3,threat,1600,0,1376,1,2,155587,164386,165762,85160,4,70.427,79.226,80.602,28.417,256.431,484.428,228.035,456.033,684.03
bas,ste,1,132017,bas_ste_run1_132017,NN,6,1,parrot,2800,1,1581,1,1,167585,176384,177965,85160,5,82.425,91.224,92.805,28.417,256.431,484.428,228.035,456.033,684.03
bas,ste,1,132017,bas_ste_run1_132017,NP,8,2,chance,2800,1,875,2,2,180783,189582,190457,85160,6,95.623,104.422,105.297,28.417,256.431,484.428,228.035,456.033,684.03
bas,ste,1,132017,bas_ste_run1_132017,NN,5,2,blur,1600,1,1136,1,1,193981,202780,203916,85160,7,108.821,117.62,118.756,28.417,256.431,484.428,228.035,456.033,684.03
bas,ste,1,132017,bas_ste_run1_132017,NP,7,2,rash,2800,1,1396,2,2,205979,214778,216174,85160,8,120.819,129.618,131.014,28.417,256.431,484.428,228.035,456.033,684.03
bas,ste,1,132017,bas_ste_run1_132017,NN,5,2,tube,4000,1,1282,1,1,219177,227976,229258,85160,9,134.017,142.816,144.098,28.417,256.431,484.428,228.035,456.033,684.03
bas,ste,1,132017,bas_ste_run1_132017,NP,5,3,share,2800,1,1777,2,2,233575,242390,244167,85160,10,148.415,157.23,159.007,28.417,256.431,484.428,228.035,456.033,684.03
bas,ste,1,132017,bas_ste_run1_132017,NP,7,2,wealth,1600,1,1140,2,2,246789,255588,256728,85160,11,161.629,170.428,171.568,28.417,256.431,484.428,228.035,456.033,684.03
bas,ste,1,132017,bas_ste_run1_132017,NP,8,2,bush,1600,1,1200,2,2,258787,267586,268786,85160,12,173.627,182.426,183.626,28.417,256.431,484.428,228.035,456.033,684.03
bas,ste,1,132017,bas_ste_run1_132017,NN,7,1,straw,4000,1,844,1,1,270786,279584,280428,85160,13,185.626,194.424,195.268,28.417,256.431,484.428,228.035,456.033,684.03
bas,ste,1,132017,bas_ste_run1_132017,NP,6,1,frost,4000,1,963,2,2,285183,293982,294945,85160,14,200.023,208.822,209.785,28.417,256.431,484.428,228.035,456.033,684.03
bas,ste,1,132017,bas_ste_run1_132017,RN,5,1,quart,4000,1,888,1,1,299581,308380,309268,85160,15,214.421,223.22,224.108,28.417,256.431,484.428,228.035,456.033,684.03
bas,ste,1,132017,bas_ste_run1_132017,NN,6,1,taxi,1600,1,1116,1,1,343974,352789,353905,85160,16,258.814,267.629,268.745,28.417,256.431,484.428,228.035,456.033,684.03
bas,ste,1,132017,bas_ste_run1_132017,NN,8,2,liar,1600,1,1104,1,1,355989,364787,365891,85160,17,270.829,279.627,280.731,28.417,256.431,484.428,228.035,456.033,684.03
bas,ste,1,132017,bas_ste_run1_132017,NP,7,2,need,2800,1,1357,2,2,367987,376785,378142,85160,18,282.827,291.625,292.982,28.417,256.431,484.428,228.035,456.033,684.03
bas,ste,1,132017,bas_ste_run1_132017,NP,7,2,bean,4000,1,980,2,2,381185,389983,390963,85160,19,296.025,304.823,305.803,28.417,256.431,484.428,228.035,456.033,684.03
bas,ste,1,132017,bas_ste_run1_132017,NP,8,3,bees,2800,1,1013,2,2,395582,404381,405394,85160,20,310.422,319.221,320.234,28.417,256.431,484.428,228.035,456.033,684.03
bas,ste,1,132017,bas_ste_run1_132017,NP,5,3,visit,4000,1,847,2,2,408780,417579,418426,85160,21,323.62,332.419,333.266,28.417,256.431,484.428,228.035,456.033,684.03
bas,ste,1,132017,bas_ste_run1_132017,NN,7,1,logic,1600,0,843,2,1,423178,431977,432820,85160,22,338.018,346.817,347.66,28.417,256.431,484.428,228.035,456.033,684.03
bas,ste,1,132017,bas_ste_run1_132017,NP,5,3,people,4000,0,817,1,2,435176,443975,444792,85160,23,350.016,358.815,359.632,28.417,256.431,484.428,228.035,456.033,684.03
bas,ste,1,132017,bas_ste_run1_132017,NN,8,2,heater,1600,1,1210,1,1,449574,458389,459599,85160,24,364.414,373.229,374.439,28.417,256.431,484.428,228.035,456.033,684.03
bas,ste,1,132017,bas_ste_run1_132017,RN,5,1,noise,2800,1,1117,1,1,461589,470387,471504,85160,25,376.429,385.227,386.344,28.417,256.431,484.428,228.035,456.033,684.03
bas,ste,1,132017,bas_ste_run1_132017,NN,5,2,pole,2800,1,940,1,1,474787,483585,484525,85160,26,389.627,398.425,399.365,28.417,256.431,484.428,228.035,456.033,684.03
bas,ste,1,132017,bas_ste_run1_132017,NP,8,3,city,4000,1,1011,2,2,487985,496783,497794,85160,27,402.825,411.623,412.634,28.417,256.431,484.428,228.035,456.033,684.03
bas,ste,1,132017,bas_ste_run1_132017,NP,8,3,carpet,1600,1,1134,2,2,502382,511181,512315,85160,28,417.222,426.021,427.155,28.417,256.431,484.428,228.035,456.033,684.03
bas,ste,1,132017,bas_ste_run1_132017,NP,5,3,tags,4000,1,1114,2,2,514380,523179,524293,85160,29,429.22,438.019,439.133,28.417,256.431,484.428,228.035,456.033,684.03
bas,ste,1,132017,bas_ste_run1_132017,NN,5,2,greed,2800,1,1987,1,1,528778,537577,539564,85160,30,443.618,452.417,454.404,28.417,256.431,484.428,228.035,456.033,684.03
bas,ste,1,132017,bas_ste_run1_132017,NN,5,2,pans,1600,1,1125,1,1,571988,580787,581912,85160,31,486.828,495.627,496.752,28.417,256.431,484.428,228.035,456.033,684.03
bas,ste,1,132017,bas_ste_run1_132017,NP,5,3,muscle,4000,1,847,2,2,583986,592785,593632,85160,32,498.826,507.625,508.472,28.417,256.431,484.428,228.035,456.033,684.03
bas,ste,1,132017,bas_ste_run1_132017,NP,8,2,bugs,2800,1,1695,2,2,598384,607182,608877,85160,33,513.224,522.022,523.717,28.417,256.431,484.428,228.035,456.033,684.03
bas,ste,1,132017,bas_ste_run1_132017,RN,5,1,fusion,4000,1,737,1,1,611582,620380,621117,85160,34,526.422,535.22,535.957,28.417,256.431,484.428,228.035,456.033,684.03
bas,ste,1,132017,bas_ste_run1_132017,NN,8,2,shell,4000,1,1294,1,1,625979,634778,636072,85160,35,540.819,549.618,550.912,28.417,256.431,484.428,228.035,456.033,684.03
bas,ste,1,132017,bas_ste_run1_132017,NP,7,1,clue,1600,1,895,2,2,640377,649176,650071,85160,36,555.217,564.016,564.911,28.417,256.431,484.428,228.035,456.033,684.03
bas,ste,1,132017,bas_ste_run1_132017,NP,8,2,wife,2800,1,994,2,2,652375,661174,662168,85160,37,567.215,576.014,577.008,28.417,256.431,484.428,228.035,456.033,684.03
bas,ste,1,132017,bas_ste_run1_132017,NN,5,2,gift,1600,1,1379,1,1,665590,674388,675767,85160,38,580.43,589.228,590.607,28.417,256.431,484.428,228.035,456.033,684.03
bas,ste,1,132017,bas_ste_run1_132017,NP,6,1,food,1600,1,1815,2,2,677588,686386,688201,85160,39,592.428,601.226,603.041,28.417,256.431,484.428,228.035,456.033,684.03
bas,ste,1,132017,bas_ste_run1_132017,RN,8,1,ground,4000,0,0,,1,689586,698385,0,85160,40,604.426,613.225,-85.16,28.417,256.431,484.428,228.035,456.033,684.03
bas,ste,1,132017,bas_ste_run1_132017,NP,5,3,marker,2800,1,1267,2,2,703984,712782,714049,85160,41,618.824,627.622,628.889,28.417,256.431,484.428,228.035,456.033,684.03
bas,ste,1,132017,bas_ste_run1_132017,NN,8,2,signal,2800,1,1150,1,1,717182,725980,727130,85160,42,632.022,640.82,641.97,28.417,256.431,484.428,228.035,456.033,684.03
bas,ste,1,132017,bas_ste_run1_132017,NP,5,3,curve,4000,1,1024,2,2,730380,739178,740202,85160,43,645.22,654.018,655.042,28.417,256.431,484.428,228.035,456.033,684.03
bas,ste,1,132017,bas_ste_run1_132017,NN,7,2,pledge,2800,0,0,,1,744777,753576,0,85160,44,659.617,668.416,-85.16,28.417,256.431,484.428,228.035,456.033,684.03
bas,ste,1,132017,bas_ste_run1_132017,NN,7,2,berry,1600,1,1016,1,1,757975,766774,767790,85160,45,672.815,681.614,682.63,28.417,256.431,484.428,228.035,456.033,684.03
bas,ste,2,132017,bas_ste_run2_132017,NP,5,3,north,2800,1,1295,2,2,83433,92231,93526,52622,1,30.811,39.609,40.904,28.411,256.408,484.422,228.03,456.027,684.024
bas,ste,2,132017,bas_ste_run2_132017,NP,5,3,ransom,2800,1,1084,2,2,96631,105429,106513,52622,2,44.009,52.807,53.891,28.411,256.408,484.422,228.03,456.027,684.024
bas,ste,2,132017,bas_ste_run2_132017,NN,5,2,chin,4000,1,964,1,1,109829,118644,119608,52622,3,57.207,66.022,66.986,28.411,256.408,484.422,228.03,456.027,684.024
bas,ste,2,132017,bas_ste_run2_132017,NN,6,1,whale,1600,1,1130,1,1,124243,133042,134172,52622,4,71.621,80.42,81.55,28.411,256.408,484.422,228.03,456.027,684.024
bas,ste,2,132017,bas_ste_run2_132017,NN,8,2,cotton,2800,1,902,1,1,136241,145040,145942,52622,5,83.619,92.418,93.32,28.411,256.408,484.422,228.03,456.027,684.024
bas,ste,2,132017,bas_ste_run2_132017,NP,5,3,wheel,4000,1,948,2,2,149439,158238,159186,52622,6,96.817,105.616,106.564,28.411,256.408,484.422,228.03,456.027,684.024
bas,ste,2,132017,bas_ste_run2_132017,RN,5,1,cabin,1600,1,1647,1,1,163837,172635,174282,52622,7,111.215,120.013,121.66,28.411,256.408,484.422,228.03,456.027,684.024
bas,ste,2,132017,bas_ste_run2_132017,NN,5,2,hatch,4000,1,808,1,1,175835,184634,185442,52622,8,123.213,132.012,132.82,28.411,256.408,484.422,228.03,456.027,684.024
bas,ste,2,132017,bas_ste_run2_132017,NN,7,1,flame,1600,1,985,1,1,190233,199031,200016,52622,9,137.611,146.409,147.394,28.411,256.408,484.422,228.03,456.027,684.024
bas,ste,2,132017,bas_ste_run2_132017,NP,6,1,dollar,4000,1,1258,2,2,202231,211029,212287,52622,10,149.609,158.407,159.665,28.411,256.408,484.422,228.03,456.027,684.024
bas,ste,2,132017,bas_ste_run2_132017,NP,8,2,exam,2800,1,780,2,2,216645,225444,226224,52622,11,164.023,172.822,173.602,28.411,256.408,484.422,228.03,456.027,684.024
bas,ste,2,132017,bas_ste_run2_132017,NN,8,2,lesson,4000,1,852,1,1,229843,238642,239494,52622,12,177.221,186.02,186.872,28.411,256.408,484.422,228.03,456.027,684.024
bas,ste,2,132017,bas_ste_run2_132017,NP,7,1,teeth,1600,1,1174,2,2,244241,253039,254213,52622,13,191.619,200.417,201.591,28.411,256.408,484.422,228.03,456.027,684.024
bas,ste,2,132017,bas_ste_run2_132017,NP,8,2,kids,2800,1,995,2,2,256239,265037,266032,52622,14,203.617,212.415,213.41,28.411,256.408,484.422,228.03,456.027,684.024
bas,ste,2,132017,bas_ste_run2_132017,RN,7,1,jars,1600,0,1209,2,1,269437,278235,279444,52622,15,216.815,225.613,226.822,28.411,256.408,484.422,228.03,456.027,684.024
bas,ste,2,132017,bas_ste_run2_132017,NP,5,3,harp,2800,1,996,2,2,311430,320245,321241,52622,16,258.808,267.623,268.619,28.411,256.408,484.422,228.03,456.027,684.024
bas,ste,2,132017,bas_ste_run2_132017,NN,8,2,sled,4000,1,1344,1,1,324645,333443,334787,52622,17,272.023,280.821,282.165,28.411,256.408,484.422,228.03,456.027,684.024
bas,ste,2,132017,bas_ste_run2_132017,RN,8,1,house,4000,1,1036,1,1,339042,347841,348877,52622,18,286.42,295.219,296.255,28.411,256.408,484.422,228.03,456.027,684.024
bas,ste,2,132017,bas_ste_run2_132017,NP,5,3,store,2800,1,934,2,2,353440,362239,363173,52622,19,300.818,309.617,310.551,28.411,256.408,484.422,228.03,456.027,684.024
